,vpn_number,trial,condition,correct_key,key,rt,iscorrect,accuracy,error_rate
0,1,0,pictures,l,s,1.60121011734,False,0.98,0.020000000000000018
1,1,1,pictures,l,l,0.809813022614,True,0.98,0.020000000000000018
2,1,2,pictures,l,l,0.624212026596,True,0.98,0.020000000000000018
3,1,3,pictures,l,l,0.53791308403,True,0.98,0.020000000000000018
4,1,4,words,s,s,0.536463975906,True,0.98,0.020000000000000018
5,1,5,words,s,l,0.468966007233,False,0.98,0.020000000000000018
6,1,6,words,s,s,1.7979969978299999,True,0.98,0.020000000000000018
7,1,7,words,s,s,0.455532073975,True,0.98,0.020000000000000018
8,1,8,pictures,l,l,0.6305971145629999,True,0.98,0.020000000000000018
9,1,9,words,s,s,0.635549068451,True,0.98,0.020000000000000018
10,1,10,words,s,s,0.43671298026999994,True,0.98,0.020000000000000018
11,1,11,words,s,s,0.580194950104,True,0.98,0.020000000000000018
12,1,12,words,s,s,0.379474878311,True,0.98,0.020000000000000018
13,1,13,pictures,l,l,0.452703952789,True,0.98,0.020000000000000018
14,1,14,words,s,s,0.60072517395,True,0.98,0.020000000000000018
15,1,15,words,s,s,0.385452032089,True,0.98,0.020000000000000018
16,1,16,pictures,l,l,0.424815893173,True,0.98,0.020000000000000018
17,1,17,pictures,l,l,0.529315948486,True,0.98,0.020000000000000018
18,1,18,pictures,l,l,0.43567109108,True,0.98,0.020000000000000018
19,1,19,pictures,l,l,0.764928102493,True,0.98,0.020000000000000018
20,1,20,words,s,s,0.40360212326,True,0.98,0.020000000000000018
21,1,21,pictures,l,l,0.513916969299,True,0.98,0.020000000000000018
22,1,22,pictures,l,l,0.642765045166,True,0.98,0.020000000000000018
23,1,23,words,s,s,0.535161972046,True,0.98,0.020000000000000018
24,1,24,words,s,s,0.323107004166,True,0.98,0.020000000000000018
25,1,25,words,s,s,0.384130001068,True,0.98,0.020000000000000018
26,1,26,words,s,s,0.386745929718,True,0.98,0.020000000000000018
27,1,27,pictures,l,l,0.431236028671,True,0.98,0.020000000000000018
28,1,28,pictures,l,l,0.576281070709,True,0.98,0.020000000000000018
29,1,29,words,s,s,0.575101137161,True,0.98,0.020000000000000018
30,1,30,words,s,s,0.35231995582599995,True,0.98,0.020000000000000018
31,1,31,words,s,s,0.43404603004500003,True,0.98,0.020000000000000018
32,1,32,words,s,s,0.572552919388,True,0.98,0.020000000000000018
33,1,33,words,s,s,0.42469501495399997,True,0.98,0.020000000000000018
34,1,34,words,s,s,0.358112812042,True,0.98,0.020000000000000018
35,1,35,pictures,l,l,0.36646819114699997,True,0.98,0.020000000000000018
36,1,36,pictures,l,l,0.40852999687200003,True,0.98,0.020000000000000018
37,1,37,words,s,s,0.443336963654,True,0.98,0.020000000000000018
38,1,38,words,s,s,0.376507997513,True,0.98,0.020000000000000018
39,1,39,words,s,s,0.37095499038699997,True,0.98,0.020000000000000018
40,1,40,pictures,l,l,0.35632586479199996,True,0.98,0.020000000000000018
41,1,41,words,s,s,0.617430925369,True,0.98,0.020000000000000018
42,1,42,pictures,l,l,0.462604999542,True,0.98,0.020000000000000018
43,1,43,words,s,s,0.575834989548,True,0.98,0.020000000000000018
44,1,44,pictures,l,l,0.538974046707,True,0.98,0.020000000000000018
45,1,45,pictures,l,l,0.490792989731,True,0.98,0.020000000000000018
46,1,46,words,s,s,0.439512014389,True,0.98,0.020000000000000018
47,1,47,pictures,l,l,0.626768112183,True,0.98,0.020000000000000018
48,1,48,pictures,l,l,0.8203079700470001,True,0.98,0.020000000000000018
49,1,49,pictures,l,l,0.383684158325,True,0.98,0.020000000000000018
50,1,50,pictures,l,l,0.449497938156,True,0.98,0.020000000000000018
51,1,51,pictures,l,l,0.447663068771,True,0.98,0.020000000000000018
52,1,52,words,s,s,0.404422998428,True,0.98,0.020000000000000018
53,1,53,words,s,s,0.44565486908,True,0.98,0.020000000000000018
54,1,54,words,s,s,0.519427061081,True,0.98,0.020000000000000018
55,1,55,words,s,s,0.44782781601000005,True,0.98,0.020000000000000018
56,1,56,pictures,l,l,0.41158485412600004,True,0.98,0.020000000000000018
57,1,57,pictures,l,l,0.520795106888,True,0.98,0.020000000000000018
58,1,58,words,s,s,0.453077077866,True,0.98,0.020000000000000018
59,1,59,words,s,s,0.31291103363,True,0.98,0.020000000000000018
60,1,60,words,s,s,0.31750297546399997,True,0.98,0.020000000000000018
61,1,61,words,s,s,0.362426042557,True,0.98,0.020000000000000018
62,1,62,words,s,s,0.334412097931,True,0.98,0.020000000000000018
63,1,63,words,s,s,0.375415086746,True,0.98,0.020000000000000018
64,1,64,words,s,s,0.295237064362,True,0.98,0.020000000000000018
65,1,65,words,s,s,0.34930801391599997,True,0.98,0.020000000000000018
66,1,66,words,s,s,0.458552837372,True,0.98,0.020000000000000018
67,1,67,pictures,l,l,0.402065992355,True,0.98,0.020000000000000018
68,1,68,words,s,s,0.512204885483,True,0.98,0.020000000000000018
69,1,69,pictures,l,l,0.398822069168,True,0.98,0.020000000000000018
70,1,70,pictures,l,l,0.664252996445,True,0.98,0.020000000000000018
71,1,71,pictures,l,l,0.542977809906,True,0.98,0.020000000000000018
72,1,72,words,s,s,0.467100858688,True,0.98,0.020000000000000018
73,1,73,words,s,s,0.351225137711,True,0.98,0.020000000000000018
74,1,74,pictures,l,l,0.400924921036,True,0.98,0.020000000000000018
75,1,75,words,s,s,0.634470939636,True,0.98,0.020000000000000018
76,1,76,pictures,l,l,0.40685105323799997,True,0.98,0.020000000000000018
77,1,77,words,s,s,0.720878839493,True,0.98,0.020000000000000018
78,1,78,words,s,s,0.301561832428,True,0.98,0.020000000000000018
79,1,79,words,s,s,0.36683797836300003,True,0.98,0.020000000000000018
80,1,80,words,s,s,0.320345878601,True,0.98,0.020000000000000018
81,1,81,pictures,l,l,0.42760491371200005,True,0.98,0.020000000000000018
82,1,82,words,s,s,0.605439901352,True,0.98,0.020000000000000018
83,1,83,words,s,s,0.45911812782300004,True,0.98,0.020000000000000018
84,1,84,words,s,s,0.37007308006300005,True,0.98,0.020000000000000018
85,1,85,pictures,l,l,0.383718967438,True,0.98,0.020000000000000018
86,1,86,pictures,l,s,0.5618958473210001,False,0.98,0.020000000000000018
87,1,87,words,s,s,0.84854888916,True,0.98,0.020000000000000018
88,1,88,pictures,l,l,0.447695016861,True,0.98,0.020000000000000018
89,1,89,words,s,s,0.619724035263,True,0.98,0.020000000000000018
90,1,90,pictures,l,l,0.47071313858,True,0.98,0.020000000000000018
91,1,91,words,s,s,0.6094119548800001,True,0.98,0.020000000000000018
92,1,92,pictures,l,l,0.48057913780199996,True,0.98,0.020000000000000018
93,1,93,pictures,l,l,0.598143100739,True,0.98,0.020000000000000018
94,1,94,words,s,s,0.454466104507,True,0.98,0.020000000000000018
95,1,95,words,s,s,0.292772054672,True,0.98,0.020000000000000018
96,1,96,words,s,s,0.295042991638,True,0.98,0.020000000000000018
97,1,97,pictures,l,l,0.406787872314,True,0.98,0.020000000000000018
98,1,98,words,s,s,0.418519020081,True,0.98,0.020000000000000018
99,1,99,words,s,s,0.376949071884,True,0.98,0.020000000000000018
100,1,100,pictures,l,l,0.37965798378,True,0.98,0.020000000000000018
101,1,101,pictures,l,l,0.68897485733,True,0.98,0.020000000000000018
102,1,102,pictures,l,l,0.41612982749899996,True,0.98,0.020000000000000018
103,1,103,pictures,l,l,0.46036195755000003,True,0.98,0.020000000000000018
104,1,104,pictures,l,l,0.40547108650200003,True,0.98,0.020000000000000018
105,1,105,pictures,l,l,0.446932077408,True,0.98,0.020000000000000018
106,1,106,words,s,s,0.539511919022,True,0.98,0.020000000000000018
107,1,107,pictures,l,l,0.593201160431,True,0.98,0.020000000000000018
108,1,108,pictures,l,l,0.478574037552,True,0.98,0.020000000000000018
109,1,109,words,s,s,0.527491807938,True,0.98,0.020000000000000018
110,1,110,words,s,s,0.343809843063,True,0.98,0.020000000000000018
111,1,111,words,s,s,0.31029295921300004,True,0.98,0.020000000000000018
112,1,112,pictures,l,l,0.394577026367,True,0.98,0.020000000000000018
113,1,113,pictures,l,l,0.45061802864100003,True,0.98,0.020000000000000018
114,1,114,pictures,l,l,0.374414920807,True,0.98,0.020000000000000018
115,1,115,pictures,l,l,0.37465596199,True,0.98,0.020000000000000018
116,1,116,pictures,l,l,0.413086891174,True,0.98,0.020000000000000018
117,1,117,words,s,s,0.47756910324100005,True,0.98,0.020000000000000018
118,1,118,pictures,l,l,0.562511205673,True,0.98,0.020000000000000018
119,1,119,words,s,s,0.523608922958,True,0.98,0.020000000000000018
120,1,120,words,s,s,0.344368934631,True,0.98,0.020000000000000018
121,1,121,pictures,l,l,0.45056390762299997,True,0.98,0.020000000000000018
122,1,122,pictures,l,l,0.40264892578100003,True,0.98,0.020000000000000018
123,1,123,pictures,l,l,0.565747022629,True,0.98,0.020000000000000018
124,1,124,words,s,s,0.423748970032,True,0.98,0.020000000000000018
125,1,125,words,s,s,0.297603130341,True,0.98,0.020000000000000018
126,1,126,words,s,s,0.310170888901,True,0.98,0.020000000000000018
127,1,127,pictures,l,l,0.364932060242,True,0.98,0.020000000000000018
128,1,128,words,s,s,0.675801992416,True,0.98,0.020000000000000018
129,1,129,words,s,s,0.48634505271899997,True,0.98,0.020000000000000018
130,1,130,pictures,l,l,0.343644142151,True,0.98,0.020000000000000018
131,1,131,words,s,s,0.527693986893,True,0.98,0.020000000000000018
132,1,132,words,s,s,0.588451147079,True,0.98,0.020000000000000018
133,1,133,pictures,l,l,0.417794942856,True,0.98,0.020000000000000018
134,1,134,words,s,s,0.591257810593,True,0.98,0.020000000000000018
135,1,135,words,s,s,0.573720932007,True,0.98,0.020000000000000018
136,1,136,pictures,l,l,0.40503501892099997,True,0.98,0.020000000000000018
137,1,137,words,s,s,0.57136797905,True,0.98,0.020000000000000018
138,1,138,pictures,l,l,0.44182491302500004,True,0.98,0.020000000000000018
139,1,139,words,s,s,0.653849124908,True,0.98,0.020000000000000018
140,1,140,words,s,s,0.294242858887,True,0.98,0.020000000000000018
141,1,141,pictures,l,l,0.46093797683700005,True,0.98,0.020000000000000018
142,1,142,pictures,l,l,0.469180107117,True,0.98,0.020000000000000018
143,1,143,pictures,l,l,0.455936908722,True,0.98,0.020000000000000018
144,1,144,words,s,s,0.45378279686000006,True,0.98,0.020000000000000018
145,1,145,pictures,l,l,0.976723909378,True,0.98,0.020000000000000018
146,1,146,words,s,s,0.706404209137,True,0.98,0.020000000000000018
147,1,147,pictures,l,l,0.517502069473,True,0.98,0.020000000000000018
148,1,148,words,s,s,0.570586919785,True,0.98,0.020000000000000018
149,1,149,words,s,s,0.7751569747920001,True,0.98,0.020000000000000018
0,2,0,words,s,s,0.511910915375,True,0.98,0.020000000000000018
1,2,1,words,s,s,0.306068897247,True,0.98,0.020000000000000018
2,2,2,words,s,s,0.372982978821,True,0.98,0.020000000000000018
3,2,3,pictures,l,l,0.362237930298,True,0.98,0.020000000000000018
4,2,4,words,s,s,0.5239899158479999,True,0.98,0.020000000000000018
5,2,5,pictures,l,l,0.378663063049,True,0.98,0.020000000000000018
6,2,6,pictures,l,l,0.46570086479199996,True,0.98,0.020000000000000018
7,2,7,words,s,s,0.468638896942,True,0.98,0.020000000000000018
8,2,8,pictures,l,l,0.45200204849200004,True,0.98,0.020000000000000018
9,2,9,pictures,l,l,0.471922159195,True,0.98,0.020000000000000018
10,2,10,pictures,l,l,0.40210819244400003,True,0.98,0.020000000000000018
11,2,11,words,s,s,0.399642944336,True,0.98,0.020000000000000018
12,2,12,words,s,s,0.293936014175,True,0.98,0.020000000000000018
13,2,13,pictures,l,l,0.764679908752,True,0.98,0.020000000000000018
14,2,14,words,s,s,0.45968699455300005,True,0.98,0.020000000000000018
15,2,15,pictures,l,l,0.385503053665,True,0.98,0.020000000000000018
16,2,16,words,s,s,0.573236942291,True,0.98,0.020000000000000018
17,2,17,pictures,l,l,0.431027173996,True,0.98,0.020000000000000018
18,2,18,pictures,l,l,0.501309871674,True,0.98,0.020000000000000018
19,2,19,words,s,s,0.44810199737499995,True,0.98,0.020000000000000018
20,2,20,pictures,l,l,0.61838889122,True,0.98,0.020000000000000018
21,2,21,pictures,l,l,0.463636875153,True,0.98,0.020000000000000018
22,2,22,pictures,l,l,0.371838092804,True,0.98,0.020000000000000018
23,2,23,pictures,l,l,0.447734832764,True,0.98,0.020000000000000018
24,2,24,words,s,s,0.414284944534,True,0.98,0.020000000000000018
25,2,25,pictures,l,l,0.390740871429,True,0.98,0.020000000000000018
26,2,26,pictures,l,l,0.7602131366730001,True,0.98,0.020000000000000018
27,2,27,pictures,l,l,0.512328147888,True,0.98,0.020000000000000018
28,2,28,words,s,s,0.391748905182,True,0.98,0.020000000000000018
29,2,29,pictures,l,l,0.403198957443,True,0.98,0.020000000000000018
30,2,30,words,s,s,0.589373111725,True,0.98,0.020000000000000018
31,2,31,words,s,s,0.338160037994,True,0.98,0.020000000000000018
32,2,32,words,s,s,0.33747196197499996,True,0.98,0.020000000000000018
33,2,33,words,s,s,0.325230121613,True,0.98,0.020000000000000018
34,2,34,words,s,s,0.34510588645900003,True,0.98,0.020000000000000018
35,2,35,words,s,s,0.494046926498,True,0.98,0.020000000000000018
36,2,36,pictures,l,l,0.339676141739,True,0.98,0.020000000000000018
37,2,37,words,s,s,0.468023061752,True,0.98,0.020000000000000018
38,2,38,pictures,l,l,0.419629812241,True,0.98,0.020000000000000018
39,2,39,pictures,l,l,0.49099612236,True,0.98,0.020000000000000018
40,2,40,words,s,s,0.45178103446999995,True,0.98,0.020000000000000018
41,2,41,words,s,s,0.47420120239299995,True,0.98,0.020000000000000018
42,2,42,pictures,l,l,0.40460586547899996,True,0.98,0.020000000000000018
43,2,43,words,s,s,0.603641986847,True,0.98,0.020000000000000018
44,2,44,words,s,s,0.599928855896,True,0.98,0.020000000000000018
45,2,45,words,s,s,0.300045967102,True,0.98,0.020000000000000018
46,2,46,words,s,s,0.399657964706,True,0.98,0.020000000000000018
47,2,47,words,s,s,0.344390869141,True,0.98,0.020000000000000018
48,2,48,pictures,l,l,0.38488817215000004,True,0.98,0.020000000000000018
49,2,49,words,s,l,0.354895114899,False,0.98,0.020000000000000018
50,2,50,words,s,s,0.568604230881,True,0.98,0.020000000000000018
51,2,51,pictures,l,l,0.54638004303,True,0.98,0.020000000000000018
52,2,52,words,s,s,0.454941034317,True,0.98,0.020000000000000018
53,2,53,pictures,l,l,0.7521491050720001,True,0.98,0.020000000000000018
54,2,54,words,s,s,0.40892100334200004,True,0.98,0.020000000000000018
55,2,55,pictures,l,l,0.448163032532,True,0.98,0.020000000000000018
56,2,56,pictures,l,l,0.550671100616,True,0.98,0.020000000000000018
57,2,57,pictures,l,s,0.47467398643500003,False,0.98,0.020000000000000018
58,2,58,pictures,l,l,0.6193590164180001,True,0.98,0.020000000000000018
59,2,59,words,s,s,0.524667024612,True,0.98,0.020000000000000018
60,2,60,pictures,l,l,0.385340929031,True,0.98,0.020000000000000018
61,2,61,pictures,l,l,0.508152961731,True,0.98,0.020000000000000018
62,2,62,words,s,s,0.484120845795,True,0.98,0.020000000000000018
63,2,63,words,s,s,0.37678194045999996,True,0.98,0.020000000000000018
64,2,64,words,s,s,0.304426908493,True,0.98,0.020000000000000018
65,2,65,pictures,l,l,0.379945993423,True,0.98,0.020000000000000018
66,2,66,words,s,s,0.469903945923,True,0.98,0.020000000000000018
67,2,67,pictures,l,l,0.488224983215,True,0.98,0.020000000000000018
68,2,68,words,s,s,0.653773784637,True,0.98,0.020000000000000018
69,2,69,words,s,s,0.354245185852,True,0.98,0.020000000000000018
70,2,70,pictures,l,l,0.36863899230999997,True,0.98,0.020000000000000018
71,2,71,pictures,l,l,0.436783075333,True,0.98,0.020000000000000018
72,2,72,pictures,l,l,0.384150981903,True,0.98,0.020000000000000018
73,2,73,words,s,s,0.433053016663,True,0.98,0.020000000000000018
74,2,74,pictures,l,l,0.59456205368,True,0.98,0.020000000000000018
75,2,75,pictures,l,l,0.50763297081,True,0.98,0.020000000000000018
76,2,76,pictures,l,l,0.535971164703,True,0.98,0.020000000000000018
77,2,77,words,s,s,0.408621072769,True,0.98,0.020000000000000018
78,2,78,words,s,s,0.347764968872,True,0.98,0.020000000000000018
79,2,79,words,s,s,0.333542823792,True,0.98,0.020000000000000018
80,2,80,pictures,l,l,0.541948080063,True,0.98,0.020000000000000018
81,2,81,words,s,s,0.570720911026,True,0.98,0.020000000000000018
82,2,82,words,s,s,0.463362932205,True,0.98,0.020000000000000018
83,2,83,words,s,s,0.286519050598,True,0.98,0.020000000000000018
84,2,84,pictures,l,l,0.451004981995,True,0.98,0.020000000000000018
85,2,85,words,s,s,0.39389395713799996,True,0.98,0.020000000000000018
86,2,86,words,s,s,0.344819068909,True,0.98,0.020000000000000018
87,2,87,pictures,l,l,0.37017798423799997,True,0.98,0.020000000000000018
88,2,88,words,s,s,0.369072914124,True,0.98,0.020000000000000018
89,2,89,pictures,l,l,0.351002931595,True,0.98,0.020000000000000018
90,2,90,pictures,l,l,0.49576997757,True,0.98,0.020000000000000018
91,2,91,pictures,l,l,0.395197153091,True,0.98,0.020000000000000018
92,2,92,words,s,s,0.38916587829599997,True,0.98,0.020000000000000018
93,2,93,words,s,s,0.321808815002,True,0.98,0.020000000000000018
94,2,94,pictures,l,l,0.427827119827,True,0.98,0.020000000000000018
95,2,95,words,s,s,0.749661922455,True,0.98,0.020000000000000018
96,2,96,words,s,s,0.5095460414890001,True,0.98,0.020000000000000018
97,2,97,words,s,s,0.38133311271700004,True,0.98,0.020000000000000018
98,2,98,pictures,l,l,0.39466500282300004,True,0.98,0.020000000000000018
99,2,99,words,s,s,0.514704942703,True,0.98,0.020000000000000018
100,2,100,words,s,s,0.326966047287,True,0.98,0.020000000000000018
101,2,101,pictures,l,l,0.39052104950000005,True,0.98,0.020000000000000018
102,2,102,pictures,l,l,0.606174945831,True,0.98,0.020000000000000018
103,2,103,words,s,s,0.501197814941,True,0.98,0.020000000000000018
104,2,104,words,s,s,0.348747968674,True,0.98,0.020000000000000018
105,2,105,pictures,l,l,0.395487785339,True,0.98,0.020000000000000018
106,2,106,words,s,s,0.595685958862,True,0.98,0.020000000000000018
107,2,107,pictures,l,l,0.38262295723000006,True,0.98,0.020000000000000018
108,2,108,words,s,s,0.536453008652,True,0.98,0.020000000000000018
109,2,109,words,s,s,0.353168010712,True,0.98,0.020000000000000018
110,2,110,words,s,s,0.281114816666,True,0.98,0.020000000000000018
111,2,111,words,s,s,0.274573087692,True,0.98,0.020000000000000018
112,2,112,pictures,l,l,0.40412878990199996,True,0.98,0.020000000000000018
113,2,113,words,s,s,0.381473064423,True,0.98,0.020000000000000018
114,2,114,words,s,s,0.400568008423,True,0.98,0.020000000000000018
115,2,115,pictures,l,l,0.416224956512,True,0.98,0.020000000000000018
116,2,116,words,s,s,0.456003904343,True,0.98,0.020000000000000018
117,2,117,pictures,l,l,0.403073072433,True,0.98,0.020000000000000018
118,2,118,words,s,s,0.657037973404,True,0.98,0.020000000000000018
119,2,119,pictures,l,l,0.38880681991599997,True,0.98,0.020000000000000018
120,2,120,words,s,s,0.491652011871,True,0.98,0.020000000000000018
121,2,121,words,s,s,0.359405994415,True,0.98,0.020000000000000018
122,2,122,pictures,l,l,0.39952707290600004,True,0.98,0.020000000000000018
123,2,123,pictures,l,l,0.688593149185,True,0.98,0.020000000000000018
124,2,124,words,s,s,0.41735100746200005,True,0.98,0.020000000000000018
125,2,125,pictures,l,l,0.470399856567,True,0.98,0.020000000000000018
126,2,126,pictures,l,l,0.46906709671,True,0.98,0.020000000000000018
127,2,127,pictures,l,l,0.452747821808,True,0.98,0.020000000000000018
128,2,128,words,s,s,0.41258692741400005,True,0.98,0.020000000000000018
129,2,129,pictures,l,l,0.47933292388899995,True,0.98,0.020000000000000018
130,2,130,words,s,s,0.421989917755,True,0.98,0.020000000000000018
131,2,131,words,s,s,0.49068403244,True,0.98,0.020000000000000018
132,2,132,pictures,l,s,0.190986871719,False,0.98,0.020000000000000018
133,2,133,words,s,s,0.531924009323,True,0.98,0.020000000000000018
134,2,134,words,s,s,0.335737228394,True,0.98,0.020000000000000018
135,2,135,pictures,l,l,0.41965794563299996,True,0.98,0.020000000000000018
136,2,136,words,s,s,0.503691911697,True,0.98,0.020000000000000018
137,2,137,words,s,s,0.326959133148,True,0.98,0.020000000000000018
138,2,138,words,s,s,0.34401702880900004,True,0.98,0.020000000000000018
139,2,139,pictures,l,l,0.416401147842,True,0.98,0.020000000000000018
140,2,140,words,s,s,0.5325779914859999,True,0.98,0.020000000000000018
141,2,141,words,s,s,0.298232078552,True,0.98,0.020000000000000018
142,2,142,pictures,l,l,0.384688138962,True,0.98,0.020000000000000018
143,2,143,pictures,l,l,0.564519882202,True,0.98,0.020000000000000018
144,2,144,pictures,l,l,0.37556695938100004,True,0.98,0.020000000000000018
145,2,145,pictures,l,l,0.371214151382,True,0.98,0.020000000000000018
146,2,146,words,s,s,0.496384859085,True,0.98,0.020000000000000018
147,2,147,words,s,s,0.28010392189,True,0.98,0.020000000000000018
148,2,148,words,s,s,0.270233154297,True,0.98,0.020000000000000018
149,2,149,words,s,s,0.315940856934,True,0.98,0.020000000000000018
0,3,0,words,s,s,0.411798000336,True,0.9933333333333333,0.00666666666666671
1,3,1,pictures,l,l,0.45983099937399996,True,0.9933333333333333,0.00666666666666671
2,3,2,pictures,l,l,0.40132379531900003,True,0.9933333333333333,0.00666666666666671
3,3,3,pictures,l,l,0.489832162857,True,0.9933333333333333,0.00666666666666671
4,3,4,words,s,s,0.41997504234300004,True,0.9933333333333333,0.00666666666666671
5,3,5,words,s,s,0.387849092484,True,0.9933333333333333,0.00666666666666671
6,3,6,pictures,l,l,0.40425491333,True,0.9933333333333333,0.00666666666666671
7,3,7,words,s,s,0.41929602623,True,0.9933333333333333,0.00666666666666671
8,3,8,words,s,s,0.415959119797,True,0.9933333333333333,0.00666666666666671
9,3,9,words,s,s,0.353009939194,True,0.9933333333333333,0.00666666666666671
10,3,10,pictures,l,l,0.45609116554300005,True,0.9933333333333333,0.00666666666666671
11,3,11,pictures,l,l,0.38119411468500003,True,0.9933333333333333,0.00666666666666671
12,3,12,pictures,l,l,0.386444091797,True,0.9933333333333333,0.00666666666666671
13,3,13,words,s,s,0.38213300705,True,0.9933333333333333,0.00666666666666671
14,3,14,words,s,s,0.377244949341,True,0.9933333333333333,0.00666666666666671
15,3,15,pictures,l,l,0.39834690094,True,0.9933333333333333,0.00666666666666671
16,3,16,words,s,s,0.474881887436,True,0.9933333333333333,0.00666666666666671
17,3,17,words,s,s,0.38917994499200004,True,0.9933333333333333,0.00666666666666671
18,3,18,pictures,l,l,0.433182001114,True,0.9933333333333333,0.00666666666666671
19,3,19,pictures,l,l,0.412427186966,True,0.9933333333333333,0.00666666666666671
20,3,20,pictures,l,l,0.389936208725,True,0.9933333333333333,0.00666666666666671
21,3,21,pictures,l,l,0.500071048737,True,0.9933333333333333,0.00666666666666671
22,3,22,pictures,l,l,0.482914209366,True,0.9933333333333333,0.00666666666666671
23,3,23,words,s,s,0.436564922333,True,0.9933333333333333,0.00666666666666671
24,3,24,words,s,s,0.348230838776,True,0.9933333333333333,0.00666666666666671
25,3,25,pictures,l,l,0.379498004913,True,0.9933333333333333,0.00666666666666671
26,3,26,pictures,l,s,0.461865901947,False,0.9933333333333333,0.00666666666666671
27,3,27,pictures,l,l,0.482751846313,True,0.9933333333333333,0.00666666666666671
28,3,28,pictures,l,l,0.413677215576,True,0.9933333333333333,0.00666666666666671
29,3,29,pictures,l,l,0.5204308032989999,True,0.9933333333333333,0.00666666666666671
30,3,30,pictures,l,l,0.381787776947,True,0.9933333333333333,0.00666666666666671
31,3,31,pictures,l,l,0.50431895256,True,0.9933333333333333,0.00666666666666671
32,3,32,words,s,s,0.43471407890299996,True,0.9933333333333333,0.00666666666666671
33,3,33,pictures,l,l,0.411901950836,True,0.9933333333333333,0.00666666666666671
34,3,34,pictures,l,l,0.41394281387299997,True,0.9933333333333333,0.00666666666666671
35,3,35,words,s,s,0.44636893272399997,True,0.9933333333333333,0.00666666666666671
36,3,36,pictures,l,l,0.437544822693,True,0.9933333333333333,0.00666666666666671
37,3,37,pictures,l,l,0.380666017532,True,0.9933333333333333,0.00666666666666671
38,3,38,pictures,l,l,0.482661008835,True,0.9933333333333333,0.00666666666666671
39,3,39,words,s,s,0.44041800499,True,0.9933333333333333,0.00666666666666671
40,3,40,pictures,l,l,0.40197896957400003,True,0.9933333333333333,0.00666666666666671
41,3,41,words,s,s,0.44174695015,True,0.9933333333333333,0.00666666666666671
42,3,42,pictures,l,l,0.470674991608,True,0.9933333333333333,0.00666666666666671
43,3,43,words,s,s,0.46132802963299996,True,0.9933333333333333,0.00666666666666671
44,3,44,words,s,s,0.35481595993,True,0.9933333333333333,0.00666666666666671
45,3,45,words,s,s,0.516638994217,True,0.9933333333333333,0.00666666666666671
46,3,46,words,s,s,0.559539079666,True,0.9933333333333333,0.00666666666666671
47,3,47,words,s,s,0.45858001709,True,0.9933333333333333,0.00666666666666671
48,3,48,pictures,l,l,0.436233043671,True,0.9933333333333333,0.00666666666666671
49,3,49,words,s,s,0.508125066757,True,0.9933333333333333,0.00666666666666671
50,3,50,words,s,s,0.463938951492,True,0.9933333333333333,0.00666666666666671
51,3,51,words,s,s,0.359444141388,True,0.9933333333333333,0.00666666666666671
52,3,52,pictures,l,l,0.401410102844,True,0.9933333333333333,0.00666666666666671
53,3,53,words,s,s,0.509369134903,True,0.9933333333333333,0.00666666666666671
54,3,54,pictures,l,l,0.50977396965,True,0.9933333333333333,0.00666666666666671
55,3,55,pictures,l,l,0.528409004211,True,0.9933333333333333,0.00666666666666671
56,3,56,pictures,l,l,0.43477797508199995,True,0.9933333333333333,0.00666666666666671
57,3,57,words,s,s,0.39163303375200004,True,0.9933333333333333,0.00666666666666671
58,3,58,words,s,s,0.39937710761999995,True,0.9933333333333333,0.00666666666666671
59,3,59,pictures,l,l,0.400599002838,True,0.9933333333333333,0.00666666666666671
60,3,60,words,s,s,0.509727954865,True,0.9933333333333333,0.00666666666666671
61,3,61,words,s,s,0.427428007126,True,0.9933333333333333,0.00666666666666671
62,3,62,words,s,s,0.37532281875600004,True,0.9933333333333333,0.00666666666666671
63,3,63,pictures,l,l,0.48070812225299997,True,0.9933333333333333,0.00666666666666671
64,3,64,pictures,l,l,0.516419887543,True,0.9933333333333333,0.00666666666666671
65,3,65,pictures,l,l,0.5047841072079999,True,0.9933333333333333,0.00666666666666671
66,3,66,pictures,l,l,0.421236991882,True,0.9933333333333333,0.00666666666666671
67,3,67,pictures,l,l,0.385680913925,True,0.9933333333333333,0.00666666666666671
68,3,68,pictures,l,l,0.412140130997,True,0.9933333333333333,0.00666666666666671
69,3,69,pictures,l,l,0.39780497551,True,0.9933333333333333,0.00666666666666671
70,3,70,words,s,s,0.392460823059,True,0.9933333333333333,0.00666666666666671
71,3,71,pictures,l,l,0.366078853607,True,0.9933333333333333,0.00666666666666671
72,3,72,words,s,s,0.47472691535899997,True,0.9933333333333333,0.00666666666666671
73,3,73,pictures,l,l,0.34215378761299997,True,0.9933333333333333,0.00666666666666671
74,3,74,pictures,l,l,0.590906143188,True,0.9933333333333333,0.00666666666666671
75,3,75,pictures,l,l,0.34464097023,True,0.9933333333333333,0.00666666666666671
76,3,76,pictures,l,l,0.661398887634,True,0.9933333333333333,0.00666666666666671
77,3,77,pictures,l,l,0.44295096397399997,True,0.9933333333333333,0.00666666666666671
78,3,78,pictures,l,l,0.44301509857199994,True,0.9933333333333333,0.00666666666666671
79,3,79,words,s,s,0.511844873428,True,0.9933333333333333,0.00666666666666671
80,3,80,words,s,s,0.402453899384,True,0.9933333333333333,0.00666666666666671
81,3,81,pictures,l,l,0.503122091293,True,0.9933333333333333,0.00666666666666671
82,3,82,pictures,l,l,0.37858986854599996,True,0.9933333333333333,0.00666666666666671
83,3,83,words,s,s,0.444623947144,True,0.9933333333333333,0.00666666666666671
84,3,84,pictures,l,l,0.440876960754,True,0.9933333333333333,0.00666666666666671
85,3,85,pictures,l,l,0.499160051346,True,0.9933333333333333,0.00666666666666671
86,3,86,pictures,l,l,0.494722127914,True,0.9933333333333333,0.00666666666666671
87,3,87,words,s,s,0.507333040237,True,0.9933333333333333,0.00666666666666671
88,3,88,words,s,s,0.406999826431,True,0.9933333333333333,0.00666666666666671
89,3,89,pictures,l,l,0.408851146698,True,0.9933333333333333,0.00666666666666671
90,3,90,words,s,s,0.5858299732209999,True,0.9933333333333333,0.00666666666666671
91,3,91,words,s,s,0.45575499534599995,True,0.9933333333333333,0.00666666666666671
92,3,92,words,s,s,0.40068793296800004,True,0.9933333333333333,0.00666666666666671
93,3,93,words,s,s,0.30259895324700004,True,0.9933333333333333,0.00666666666666671
94,3,94,pictures,l,l,0.475798130035,True,0.9933333333333333,0.00666666666666671
95,3,95,pictures,l,l,0.434741020203,True,0.9933333333333333,0.00666666666666671
96,3,96,pictures,l,l,0.492887020111,True,0.9933333333333333,0.00666666666666671
97,3,97,words,s,s,0.438575983047,True,0.9933333333333333,0.00666666666666671
98,3,98,pictures,l,l,0.458463191986,True,0.9933333333333333,0.00666666666666671
99,3,99,pictures,l,l,0.483568906784,True,0.9933333333333333,0.00666666666666671
100,3,100,words,s,s,0.42582392692599996,True,0.9933333333333333,0.00666666666666671
101,3,101,pictures,l,l,0.447154045105,True,0.9933333333333333,0.00666666666666671
102,3,102,words,s,s,0.487008094788,True,0.9933333333333333,0.00666666666666671
103,3,103,words,s,s,0.428181886673,True,0.9933333333333333,0.00666666666666671
104,3,104,words,s,s,0.5329329967499999,True,0.9933333333333333,0.00666666666666671
105,3,105,pictures,l,l,0.446777105331,True,0.9933333333333333,0.00666666666666671
106,3,106,words,s,s,0.44771504402199996,True,0.9933333333333333,0.00666666666666671
107,3,107,words,s,s,0.427925825119,True,0.9933333333333333,0.00666666666666671
108,3,108,pictures,l,l,0.364781141281,True,0.9933333333333333,0.00666666666666671
109,3,109,words,s,s,0.462746143341,True,0.9933333333333333,0.00666666666666671
110,3,110,words,s,s,0.359611034393,True,0.9933333333333333,0.00666666666666671
111,3,111,words,s,s,0.319102048874,True,0.9933333333333333,0.00666666666666671
112,3,112,pictures,l,l,0.32283115387,True,0.9933333333333333,0.00666666666666671
113,3,113,pictures,l,l,0.39383888244599996,True,0.9933333333333333,0.00666666666666671
114,3,114,pictures,l,l,0.450754880905,True,0.9933333333333333,0.00666666666666671
115,3,115,words,s,s,0.435302972794,True,0.9933333333333333,0.00666666666666671
116,3,116,pictures,l,l,0.45410084724399996,True,0.9933333333333333,0.00666666666666671
117,3,117,pictures,l,l,0.387209892273,True,0.9933333333333333,0.00666666666666671
118,3,118,pictures,l,l,0.372686862946,True,0.9933333333333333,0.00666666666666671
119,3,119,pictures,l,l,0.341109991074,True,0.9933333333333333,0.00666666666666671
120,3,120,pictures,l,l,0.36937403678900005,True,0.9933333333333333,0.00666666666666671
121,3,121,words,s,s,0.405488967896,True,0.9933333333333333,0.00666666666666671
122,3,122,words,s,s,0.410430908203,True,0.9933333333333333,0.00666666666666671
123,3,123,words,s,s,0.389142036438,True,0.9933333333333333,0.00666666666666671
124,3,124,words,s,s,0.327831983566,True,0.9933333333333333,0.00666666666666671
125,3,125,pictures,l,l,0.334491014481,True,0.9933333333333333,0.00666666666666671
126,3,126,words,s,s,0.575278043747,True,0.9933333333333333,0.00666666666666671
127,3,127,words,s,s,0.463008880615,True,0.9933333333333333,0.00666666666666671
128,3,128,pictures,l,l,0.384752035141,True,0.9933333333333333,0.00666666666666671
129,3,129,pictures,l,l,0.514369010925,True,0.9933333333333333,0.00666666666666671
130,3,130,pictures,l,l,0.522884130478,True,0.9933333333333333,0.00666666666666671
131,3,131,words,s,s,0.48938894271899996,True,0.9933333333333333,0.00666666666666671
132,3,132,pictures,l,l,0.48586893081699994,True,0.9933333333333333,0.00666666666666671
133,3,133,pictures,l,l,0.399761915207,True,0.9933333333333333,0.00666666666666671
134,3,134,pictures,l,l,0.32770085334800003,True,0.9933333333333333,0.00666666666666671
135,3,135,words,s,s,0.424537181854,True,0.9933333333333333,0.00666666666666671
136,3,136,words,s,s,0.43759703636200004,True,0.9933333333333333,0.00666666666666671
137,3,137,pictures,l,l,0.416462898254,True,0.9933333333333333,0.00666666666666671
138,3,138,pictures,l,l,0.39934110641500004,True,0.9933333333333333,0.00666666666666671
139,3,139,pictures,l,l,0.40962100029,True,0.9933333333333333,0.00666666666666671
140,3,140,pictures,l,l,0.41154503822300004,True,0.9933333333333333,0.00666666666666671
141,3,141,pictures,l,l,0.35233497619599996,True,0.9933333333333333,0.00666666666666671
142,3,142,pictures,l,l,0.428128957748,True,0.9933333333333333,0.00666666666666671
143,3,143,words,s,s,0.6070129871369999,True,0.9933333333333333,0.00666666666666671
144,3,144,pictures,l,l,0.45137596130400004,True,0.9933333333333333,0.00666666666666671
145,3,145,words,s,s,0.588711977005,True,0.9933333333333333,0.00666666666666671
146,3,146,words,s,s,0.283440828323,True,0.9933333333333333,0.00666666666666671
147,3,147,words,s,s,0.302216053009,True,0.9933333333333333,0.00666666666666671
148,3,148,pictures,l,l,0.346294879913,True,0.9933333333333333,0.00666666666666671
149,3,149,pictures,l,l,0.331840991974,True,0.9933333333333333,0.00666666666666671
0,4,0,pictures,l,l,0.46407485008199995,True,0.9733333333333334,0.026666666666666616
1,4,1,words,s,s,0.517296075821,True,0.9733333333333334,0.026666666666666616
2,4,2,words,s,s,0.44975399971,True,0.9733333333333334,0.026666666666666616
3,4,3,pictures,l,l,0.412323951721,True,0.9733333333333334,0.026666666666666616
4,4,4,pictures,l,l,0.456408977509,True,0.9733333333333334,0.026666666666666616
5,4,5,words,s,s,0.727595090866,True,0.9733333333333334,0.026666666666666616
6,4,6,pictures,l,l,0.483628988266,True,0.9733333333333334,0.026666666666666616
7,4,7,pictures,l,l,0.526343822479,True,0.9733333333333334,0.026666666666666616
8,4,8,pictures,l,l,0.45573997497599994,True,0.9733333333333334,0.026666666666666616
9,4,9,pictures,l,l,0.47431206703199996,True,0.9733333333333334,0.026666666666666616
10,4,10,pictures,l,l,0.44397878646899996,True,0.9733333333333334,0.026666666666666616
11,4,11,words,s,l,0.45222401618999997,False,0.9733333333333334,0.026666666666666616
12,4,12,words,s,s,0.669475793839,True,0.9733333333333334,0.026666666666666616
13,4,13,pictures,l,l,0.537214994431,True,0.9733333333333334,0.026666666666666616
14,4,14,words,s,s,0.637769937515,True,0.9733333333333334,0.026666666666666616
15,4,15,words,s,s,0.363024950027,True,0.9733333333333334,0.026666666666666616
16,4,16,words,s,s,0.449334144592,True,0.9733333333333334,0.026666666666666616
17,4,17,pictures,l,l,0.422266960144,True,0.9733333333333334,0.026666666666666616
18,4,18,words,s,s,0.45117402076700003,True,0.9733333333333334,0.026666666666666616
19,4,19,words,s,s,0.38720703125,True,0.9733333333333334,0.026666666666666616
20,4,20,words,s,s,0.36096310615500005,True,0.9733333333333334,0.026666666666666616
21,4,21,words,s,s,0.317879199982,True,0.9733333333333334,0.026666666666666616
22,4,22,words,s,s,0.34774017334,True,0.9733333333333334,0.026666666666666616
23,4,23,words,s,s,0.38939595222499995,True,0.9733333333333334,0.026666666666666616
24,4,24,words,s,s,0.34174990654,True,0.9733333333333334,0.026666666666666616
25,4,25,words,s,s,0.318619966507,True,0.9733333333333334,0.026666666666666616
26,4,26,pictures,l,l,0.37888193130500003,True,0.9733333333333334,0.026666666666666616
27,4,27,words,s,s,0.42614507675200003,True,0.9733333333333334,0.026666666666666616
28,4,28,pictures,l,l,0.37510395049999995,True,0.9733333333333334,0.026666666666666616
29,4,29,pictures,l,l,0.394160032272,True,0.9733333333333334,0.026666666666666616
30,4,30,pictures,l,l,0.322057962418,True,0.9733333333333334,0.026666666666666616
31,4,31,pictures,l,l,0.36620116233800004,True,0.9733333333333334,0.026666666666666616
32,4,32,pictures,l,l,0.421393156052,True,0.9733333333333334,0.026666666666666616
33,4,33,words,s,s,0.44566202163699997,True,0.9733333333333334,0.026666666666666616
34,4,34,words,s,s,0.33694314956699994,True,0.9733333333333334,0.026666666666666616
35,4,35,words,s,s,0.357235193253,True,0.9733333333333334,0.026666666666666616
36,4,36,pictures,l,l,0.381216049194,True,0.9733333333333334,0.026666666666666616
37,4,37,pictures,l,l,0.401429891586,True,0.9733333333333334,0.026666666666666616
38,4,38,pictures,l,l,0.420445919037,True,0.9733333333333334,0.026666666666666616
39,4,39,words,s,s,0.459420919418,True,0.9733333333333334,0.026666666666666616
40,4,40,words,s,s,0.442079782486,True,0.9733333333333334,0.026666666666666616
41,4,41,pictures,l,l,0.376852035522,True,0.9733333333333334,0.026666666666666616
42,4,42,pictures,l,l,0.437542200089,True,0.9733333333333334,0.026666666666666616
43,4,43,pictures,l,l,0.42622113227799996,True,0.9733333333333334,0.026666666666666616
44,4,44,pictures,l,l,0.33957695960999995,True,0.9733333333333334,0.026666666666666616
45,4,45,words,s,s,0.43746113777199996,True,0.9733333333333334,0.026666666666666616
46,4,46,pictures,l,l,0.716292142868,True,0.9733333333333334,0.026666666666666616
47,4,47,words,s,s,0.49367618560800003,True,0.9733333333333334,0.026666666666666616
48,4,48,words,s,s,0.328243970871,True,0.9733333333333334,0.026666666666666616
49,4,49,words,s,s,0.367989063263,True,0.9733333333333334,0.026666666666666616
50,4,50,pictures,l,l,0.40047001838699997,True,0.9733333333333334,0.026666666666666616
51,4,51,pictures,l,l,0.469701051712,True,0.9733333333333334,0.026666666666666616
52,4,52,pictures,l,l,0.373376846313,True,0.9733333333333334,0.026666666666666616
53,4,53,pictures,l,l,0.457789182663,True,0.9733333333333334,0.026666666666666616
54,4,54,pictures,l,l,0.335458040237,True,0.9733333333333334,0.026666666666666616
55,4,55,words,s,s,0.42858099937399996,True,0.9733333333333334,0.026666666666666616
56,4,56,words,s,s,0.372331142426,True,0.9733333333333334,0.026666666666666616
57,4,57,pictures,l,l,0.399580001831,True,0.9733333333333334,0.026666666666666616
58,4,58,words,s,s,0.481918096542,True,0.9733333333333334,0.026666666666666616
59,4,59,words,s,s,0.317717075348,True,0.9733333333333334,0.026666666666666616
60,4,60,pictures,l,l,0.37538194656400004,True,0.9733333333333334,0.026666666666666616
61,4,61,words,s,s,0.42483997344999996,True,0.9733333333333334,0.026666666666666616
62,4,62,pictures,l,l,0.37891197204599997,True,0.9733333333333334,0.026666666666666616
63,4,63,pictures,l,l,0.43757390976000005,True,0.9733333333333334,0.026666666666666616
64,4,64,pictures,l,l,0.37452888488799996,True,0.9733333333333334,0.026666666666666616
65,4,65,pictures,l,l,0.315222024918,True,0.9733333333333334,0.026666666666666616
66,4,66,pictures,l,l,0.318559885025,True,0.9733333333333334,0.026666666666666616
67,4,67,pictures,l,l,0.36329603195200005,True,0.9733333333333334,0.026666666666666616
68,4,68,words,s,s,0.41263389587399996,True,0.9733333333333334,0.026666666666666616
69,4,69,pictures,l,l,0.580946922302,True,0.9733333333333334,0.026666666666666616
70,4,70,words,s,s,0.440986871719,True,0.9733333333333334,0.026666666666666616
71,4,71,words,s,s,0.388319015503,True,0.9733333333333334,0.026666666666666616
72,4,72,pictures,l,l,0.424314975739,True,0.9733333333333334,0.026666666666666616
73,4,73,words,s,s,0.45183801651,True,0.9733333333333334,0.026666666666666616
74,4,74,pictures,l,l,0.329875946045,True,0.9733333333333334,0.026666666666666616
75,4,75,pictures,l,l,0.44416308403000004,True,0.9733333333333334,0.026666666666666616
76,4,76,pictures,l,l,0.341612815857,True,0.9733333333333334,0.026666666666666616
77,4,77,words,s,s,0.394078016281,True,0.9733333333333334,0.026666666666666616
78,4,78,words,s,s,0.35929608344999997,True,0.9733333333333334,0.026666666666666616
79,4,79,pictures,l,l,0.485500097275,True,0.9733333333333334,0.026666666666666616
80,4,80,words,s,s,0.449043989182,True,0.9733333333333334,0.026666666666666616
81,4,81,pictures,l,l,0.40008187293999997,True,0.9733333333333334,0.026666666666666616
82,4,82,pictures,l,l,0.471772909164,True,0.9733333333333334,0.026666666666666616
83,4,83,words,s,l,0.33908200264,False,0.9733333333333334,0.026666666666666616
84,4,84,pictures,l,l,0.397876024246,True,0.9733333333333334,0.026666666666666616
85,4,85,pictures,l,l,0.393476963043,True,0.9733333333333334,0.026666666666666616
86,4,86,words,s,s,0.436686038971,True,0.9733333333333334,0.026666666666666616
87,4,87,pictures,l,l,0.483977079391,True,0.9733333333333334,0.026666666666666616
88,4,88,words,s,s,0.46406197547899997,True,0.9733333333333334,0.026666666666666616
89,4,89,pictures,l,l,0.474420070648,True,0.9733333333333334,0.026666666666666616
90,4,90,words,s,s,0.41577720642099997,True,0.9733333333333334,0.026666666666666616
91,4,91,pictures,l,l,0.594089031219,True,0.9733333333333334,0.026666666666666616
92,4,92,words,s,s,0.46509718895,True,0.9733333333333334,0.026666666666666616
93,4,93,words,s,s,0.365882873535,True,0.9733333333333334,0.026666666666666616
94,4,94,pictures,l,l,0.423660993576,True,0.9733333333333334,0.026666666666666616
95,4,95,words,s,l,0.439959049225,False,0.9733333333333334,0.026666666666666616
96,4,96,words,s,s,0.356781959534,True,0.9733333333333334,0.026666666666666616
97,4,97,words,s,s,0.34595704078699996,True,0.9733333333333334,0.026666666666666616
98,4,98,words,s,s,0.344419956207,True,0.9733333333333334,0.026666666666666616
99,4,99,pictures,l,l,0.41919803619400003,True,0.9733333333333334,0.026666666666666616
100,4,100,words,s,s,0.39817404747,True,0.9733333333333334,0.026666666666666616
101,4,101,words,s,s,0.37440204620399997,True,0.9733333333333334,0.026666666666666616
102,4,102,pictures,l,l,0.411102056503,True,0.9733333333333334,0.026666666666666616
103,4,103,pictures,l,l,0.417667865753,True,0.9733333333333334,0.026666666666666616
104,4,104,pictures,l,l,0.350821018219,True,0.9733333333333334,0.026666666666666616
105,4,105,words,s,s,0.417509078979,True,0.9733333333333334,0.026666666666666616
106,4,106,words,s,s,0.369333028793,True,0.9733333333333334,0.026666666666666616
107,4,107,words,s,s,0.41021084785499995,True,0.9733333333333334,0.026666666666666616
108,4,108,pictures,l,l,0.37154006958,True,0.9733333333333334,0.026666666666666616
109,4,109,pictures,l,l,0.411056995392,True,0.9733333333333334,0.026666666666666616
110,4,110,pictures,l,l,0.5538411140439999,True,0.9733333333333334,0.026666666666666616
111,4,111,words,s,s,0.484879970551,True,0.9733333333333334,0.026666666666666616
112,4,112,pictures,l,l,0.468483924866,True,0.9733333333333334,0.026666666666666616
113,4,113,pictures,l,l,0.8122310638429999,True,0.9733333333333334,0.026666666666666616
114,4,114,pictures,l,l,0.333106040955,True,0.9733333333333334,0.026666666666666616
115,4,115,pictures,l,l,0.435773134232,True,0.9733333333333334,0.026666666666666616
116,4,116,words,s,s,0.478622913361,True,0.9733333333333334,0.026666666666666616
117,4,117,pictures,l,l,0.483799934387,True,0.9733333333333334,0.026666666666666616
118,4,118,words,s,s,0.448207139969,True,0.9733333333333334,0.026666666666666616
119,4,119,pictures,l,l,0.45269203186000007,True,0.9733333333333334,0.026666666666666616
120,4,120,words,s,s,0.500596046448,True,0.9733333333333334,0.026666666666666616
121,4,121,words,s,s,0.329144001007,True,0.9733333333333334,0.026666666666666616
122,4,122,words,s,s,0.393028974533,True,0.9733333333333334,0.026666666666666616
123,4,123,pictures,l,l,0.497244119644,True,0.9733333333333334,0.026666666666666616
124,4,124,pictures,l,l,0.43802690506,True,0.9733333333333334,0.026666666666666616
125,4,125,pictures,l,l,0.382854938507,True,0.9733333333333334,0.026666666666666616
126,4,126,words,s,s,0.465549945831,True,0.9733333333333334,0.026666666666666616
127,4,127,pictures,l,l,0.451365947723,True,0.9733333333333334,0.026666666666666616
128,4,128,words,s,s,0.419648170471,True,0.9733333333333334,0.026666666666666616
129,4,129,words,s,s,0.475572109222,True,0.9733333333333334,0.026666666666666616
130,4,130,words,s,s,0.385478973389,True,0.9733333333333334,0.026666666666666616
131,4,131,pictures,l,l,0.35921597480800005,True,0.9733333333333334,0.026666666666666616
132,4,132,words,s,s,0.525500059128,True,0.9733333333333334,0.026666666666666616
133,4,133,pictures,l,l,0.374126195908,True,0.9733333333333334,0.026666666666666616
134,4,134,words,s,s,0.343528985977,True,0.9733333333333334,0.026666666666666616
135,4,135,pictures,l,l,0.361242055893,True,0.9733333333333334,0.026666666666666616
136,4,136,pictures,l,s,0.523334026337,False,0.9733333333333334,0.026666666666666616
137,4,137,words,s,s,0.52060008049,True,0.9733333333333334,0.026666666666666616
138,4,138,pictures,l,l,0.43528008461,True,0.9733333333333334,0.026666666666666616
139,4,139,words,s,s,0.566516160965,True,0.9733333333333334,0.026666666666666616
140,4,140,pictures,l,l,0.551070213318,True,0.9733333333333334,0.026666666666666616
141,4,141,pictures,l,l,0.566853046417,True,0.9733333333333334,0.026666666666666616
142,4,142,pictures,l,l,0.33913898468000003,True,0.9733333333333334,0.026666666666666616
143,4,143,words,s,s,0.38252496719400003,True,0.9733333333333334,0.026666666666666616
144,4,144,pictures,l,l,0.442785024643,True,0.9733333333333334,0.026666666666666616
145,4,145,words,s,s,0.397223949432,True,0.9733333333333334,0.026666666666666616
146,4,146,words,s,s,0.614876031876,True,0.9733333333333334,0.026666666666666616
147,4,147,pictures,l,l,0.650089979172,True,0.9733333333333334,0.026666666666666616
148,4,148,words,s,s,0.511691093445,True,0.9733333333333334,0.026666666666666616
149,4,149,words,s,s,0.360105037689,True,0.9733333333333334,0.026666666666666616
0,5,0,words,s,s,0.5238759517670001,True,0.9933333333333333,0.00666666666666671
1,5,1,words,s,s,0.36213111877400006,True,0.9933333333333333,0.00666666666666671
2,5,2,words,s,s,0.336654901505,True,0.9933333333333333,0.00666666666666671
3,5,3,words,s,s,0.293594121933,True,0.9933333333333333,0.00666666666666671
4,5,4,pictures,l,l,0.399702072144,True,0.9933333333333333,0.00666666666666671
5,5,5,words,s,s,0.448471069336,True,0.9933333333333333,0.00666666666666671
6,5,6,pictures,l,l,0.504115104675,True,0.9933333333333333,0.00666666666666671
7,5,7,pictures,l,l,0.393927097321,True,0.9933333333333333,0.00666666666666671
8,5,8,words,s,s,0.456057071686,True,0.9933333333333333,0.00666666666666671
9,5,9,words,s,s,0.375639915466,True,0.9933333333333333,0.00666666666666671
10,5,10,words,s,s,0.310792922974,True,0.9933333333333333,0.00666666666666671
11,5,11,words,s,s,0.294203996658,True,0.9933333333333333,0.00666666666666671
12,5,12,pictures,l,l,0.387398958206,True,0.9933333333333333,0.00666666666666671
13,5,13,pictures,l,l,0.36363697052,True,0.9933333333333333,0.00666666666666671
14,5,14,pictures,l,l,0.365139961243,True,0.9933333333333333,0.00666666666666671
15,5,15,pictures,l,l,0.388534784317,True,0.9933333333333333,0.00666666666666671
16,5,16,pictures,l,l,0.339368104935,True,0.9933333333333333,0.00666666666666671
17,5,17,pictures,l,l,0.345936059952,True,0.9933333333333333,0.00666666666666671
18,5,18,words,s,s,0.408576011658,True,0.9933333333333333,0.00666666666666671
19,5,19,words,s,s,0.33890604972800004,True,0.9933333333333333,0.00666666666666671
20,5,20,pictures,l,l,0.367582082748,True,0.9933333333333333,0.00666666666666671
21,5,21,words,s,s,0.541319847107,True,0.9933333333333333,0.00666666666666671
22,5,22,words,s,s,0.42192196846,True,0.9933333333333333,0.00666666666666671
23,5,23,words,s,s,0.309742927551,True,0.9933333333333333,0.00666666666666671
24,5,24,words,s,s,0.30067896843,True,0.9933333333333333,0.00666666666666671
25,5,25,pictures,l,l,0.35252809524499995,True,0.9933333333333333,0.00666666666666671
26,5,26,words,s,s,0.632055044174,True,0.9933333333333333,0.00666666666666671
27,5,27,words,s,s,0.294000864029,True,0.9933333333333333,0.00666666666666671
28,5,28,words,s,s,0.338426828384,True,0.9933333333333333,0.00666666666666671
29,5,29,pictures,l,l,0.415609121323,True,0.9933333333333333,0.00666666666666671
30,5,30,pictures,l,l,0.505156993866,True,0.9933333333333333,0.00666666666666671
31,5,31,pictures,l,l,0.38540506362899996,True,0.9933333333333333,0.00666666666666671
32,5,32,pictures,l,l,0.413509130478,True,0.9933333333333333,0.00666666666666671
33,5,33,words,s,s,0.410903930664,True,0.9933333333333333,0.00666666666666671
34,5,34,words,s,s,0.40333104133599995,True,0.9933333333333333,0.00666666666666671
35,5,35,words,s,s,0.33712792396499996,True,0.9933333333333333,0.00666666666666671
36,5,36,words,s,s,0.31033301353500004,True,0.9933333333333333,0.00666666666666671
37,5,37,pictures,l,l,0.388544082642,True,0.9933333333333333,0.00666666666666671
38,5,38,pictures,l,l,0.506687879562,True,0.9933333333333333,0.00666666666666671
39,5,39,pictures,l,l,0.436864852905,True,0.9933333333333333,0.00666666666666671
40,5,40,words,s,s,0.407601118088,True,0.9933333333333333,0.00666666666666671
41,5,41,words,s,s,0.361882925034,True,0.9933333333333333,0.00666666666666671
42,5,42,words,s,s,0.341412067413,True,0.9933333333333333,0.00666666666666671
43,5,43,words,s,s,0.33885884284999995,True,0.9933333333333333,0.00666666666666671
44,5,44,words,s,s,0.34447789192199996,True,0.9933333333333333,0.00666666666666671
45,5,45,pictures,l,l,0.397584915161,True,0.9933333333333333,0.00666666666666671
46,5,46,pictures,l,l,0.469855070114,True,0.9933333333333333,0.00666666666666671
47,5,47,words,s,s,0.607955932617,True,0.9933333333333333,0.00666666666666671
48,5,48,pictures,l,l,0.452859163284,True,0.9933333333333333,0.00666666666666671
49,5,49,pictures,l,l,0.517874956131,True,0.9933333333333333,0.00666666666666671
50,5,50,pictures,l,l,0.42370486259499995,True,0.9933333333333333,0.00666666666666671
51,5,51,words,s,s,0.486028909683,True,0.9933333333333333,0.00666666666666671
52,5,52,pictures,l,l,0.663858890533,True,0.9933333333333333,0.00666666666666671
53,5,53,words,s,s,0.5101380348210001,True,0.9933333333333333,0.00666666666666671
54,5,54,pictures,l,l,0.40143299102799995,True,0.9933333333333333,0.00666666666666671
55,5,55,pictures,l,l,0.518446922302,True,0.9933333333333333,0.00666666666666671
56,5,56,pictures,l,l,0.374637126923,True,0.9933333333333333,0.00666666666666671
57,5,57,pictures,l,l,0.453868865967,True,0.9933333333333333,0.00666666666666671
58,5,58,words,s,s,0.49246788024899996,True,0.9933333333333333,0.00666666666666671
59,5,59,pictures,l,l,0.50732588768,True,0.9933333333333333,0.00666666666666671
60,5,60,words,s,s,0.569786071777,True,0.9933333333333333,0.00666666666666671
61,5,61,pictures,l,l,0.382071971893,True,0.9933333333333333,0.00666666666666671
62,5,62,pictures,l,l,0.50380396843,True,0.9933333333333333,0.00666666666666671
63,5,63,words,s,s,0.517420053482,True,0.9933333333333333,0.00666666666666671
64,5,64,pictures,l,l,0.33782887458800004,True,0.9933333333333333,0.00666666666666671
65,5,65,pictures,l,l,0.419620990753,True,0.9933333333333333,0.00666666666666671
66,5,66,words,s,s,0.484395027161,True,0.9933333333333333,0.00666666666666671
67,5,67,words,s,s,0.428404092789,True,0.9933333333333333,0.00666666666666671
68,5,68,pictures,l,l,0.40776801109300004,True,0.9933333333333333,0.00666666666666671
69,5,69,words,s,s,0.648731946945,True,0.9933333333333333,0.00666666666666671
70,5,70,pictures,l,l,0.36181712150600004,True,0.9933333333333333,0.00666666666666671
71,5,71,words,s,s,0.5144450664519999,True,0.9933333333333333,0.00666666666666671
72,5,72,pictures,l,l,0.320418119431,True,0.9933333333333333,0.00666666666666671
73,5,73,words,s,s,0.52131319046,True,0.9933333333333333,0.00666666666666671
74,5,74,pictures,l,l,0.319226026535,True,0.9933333333333333,0.00666666666666671
75,5,75,words,s,s,0.6896560192110001,True,0.9933333333333333,0.00666666666666671
76,5,76,pictures,l,l,0.5235810279850001,True,0.9933333333333333,0.00666666666666671
77,5,77,pictures,l,l,0.51283788681,True,0.9933333333333333,0.00666666666666671
78,5,78,words,s,s,0.513586044312,True,0.9933333333333333,0.00666666666666671
79,5,79,words,s,s,0.3735871315,True,0.9933333333333333,0.00666666666666671
80,5,80,words,s,s,0.321920156479,True,0.9933333333333333,0.00666666666666671
81,5,81,words,s,s,0.322362184525,True,0.9933333333333333,0.00666666666666671
82,5,82,words,s,s,0.283889055252,True,0.9933333333333333,0.00666666666666671
83,5,83,words,s,s,0.297343015671,True,0.9933333333333333,0.00666666666666671
84,5,84,words,s,s,0.306455850601,True,0.9933333333333333,0.00666666666666671
85,5,85,words,s,s,0.319911956787,True,0.9933333333333333,0.00666666666666671
86,5,86,words,s,s,0.29335808754000003,True,0.9933333333333333,0.00666666666666671
87,5,87,pictures,l,l,0.39555287361100006,True,0.9933333333333333,0.00666666666666671
88,5,88,pictures,l,l,0.524710893631,True,0.9933333333333333,0.00666666666666671
89,5,89,words,s,s,0.5038349628450001,True,0.9933333333333333,0.00666666666666671
90,5,90,pictures,l,l,0.516608953476,True,0.9933333333333333,0.00666666666666671
91,5,91,words,s,s,0.501653194427,True,0.9933333333333333,0.00666666666666671
92,5,92,words,s,s,0.484427928925,True,0.9933333333333333,0.00666666666666671
93,5,93,words,s,s,0.34026217460600006,True,0.9933333333333333,0.00666666666666671
94,5,94,words,s,s,0.283762931824,True,0.9933333333333333,0.00666666666666671
95,5,95,pictures,l,l,0.40380811691299995,True,0.9933333333333333,0.00666666666666671
96,5,96,pictures,l,l,0.425518989563,True,0.9933333333333333,0.00666666666666671
97,5,97,words,s,s,0.484009027481,True,0.9933333333333333,0.00666666666666671
98,5,98,words,s,s,0.379507064819,True,0.9933333333333333,0.00666666666666671
99,5,99,words,s,s,0.327402114868,True,0.9933333333333333,0.00666666666666671
100,5,100,pictures,l,l,0.40078091621399997,True,0.9933333333333333,0.00666666666666671
101,5,101,pictures,l,l,0.45965886116000004,True,0.9933333333333333,0.00666666666666671
102,5,102,words,s,s,0.48409986496000007,True,0.9933333333333333,0.00666666666666671
103,5,103,pictures,l,s,0.540642023087,False,0.9933333333333333,0.00666666666666671
104,5,104,pictures,l,l,0.875586032867,True,0.9933333333333333,0.00666666666666671
105,5,105,pictures,l,l,0.468029022217,True,0.9933333333333333,0.00666666666666671
106,5,106,words,s,s,0.646309137344,True,0.9933333333333333,0.00666666666666671
107,5,107,pictures,l,l,0.519898176193,True,0.9933333333333333,0.00666666666666671
108,5,108,pictures,l,l,0.484152793884,True,0.9933333333333333,0.00666666666666671
109,5,109,pictures,l,l,0.40209102630599997,True,0.9933333333333333,0.00666666666666671
110,5,110,words,s,s,0.470808029175,True,0.9933333333333333,0.00666666666666671
111,5,111,pictures,l,l,0.469595909119,True,0.9933333333333333,0.00666666666666671
112,5,112,words,s,s,0.522147893906,True,0.9933333333333333,0.00666666666666671
113,5,113,words,s,s,0.44939494133,True,0.9933333333333333,0.00666666666666671
114,5,114,pictures,l,l,0.40291094780000003,True,0.9933333333333333,0.00666666666666671
115,5,115,words,s,s,0.526943922043,True,0.9933333333333333,0.00666666666666671
116,5,116,pictures,l,l,0.49044585228,True,0.9933333333333333,0.00666666666666671
117,5,117,pictures,l,l,0.403906106949,True,0.9933333333333333,0.00666666666666671
118,5,118,pictures,l,l,0.366453886032,True,0.9933333333333333,0.00666666666666671
119,5,119,pictures,l,l,0.46121311187700004,True,0.9933333333333333,0.00666666666666671
120,5,120,words,s,s,0.49479699134800004,True,0.9933333333333333,0.00666666666666671
121,5,121,pictures,l,l,0.48454308509800004,True,0.9933333333333333,0.00666666666666671
122,5,122,pictures,l,l,0.616412878036,True,0.9933333333333333,0.00666666666666671
123,5,123,pictures,l,l,0.41984200477600003,True,0.9933333333333333,0.00666666666666671
124,5,124,pictures,l,l,0.38973903656,True,0.9933333333333333,0.00666666666666671
125,5,125,words,s,s,0.457432031631,True,0.9933333333333333,0.00666666666666671
126,5,126,words,s,s,0.364737033844,True,0.9933333333333333,0.00666666666666671
127,5,127,words,s,s,0.335534095764,True,0.9933333333333333,0.00666666666666671
128,5,128,words,s,s,0.34942698478699996,True,0.9933333333333333,0.00666666666666671
129,5,129,words,s,s,0.334197998047,True,0.9933333333333333,0.00666666666666671
130,5,130,pictures,l,l,0.43442606926000005,True,0.9933333333333333,0.00666666666666671
131,5,131,words,s,s,0.623487949371,True,0.9933333333333333,0.00666666666666671
132,5,132,pictures,l,l,0.653076887131,True,0.9933333333333333,0.00666666666666671
133,5,133,pictures,l,l,0.564050197601,True,0.9933333333333333,0.00666666666666671
134,5,134,pictures,l,l,0.39381194114699997,True,0.9933333333333333,0.00666666666666671
135,5,135,words,s,s,0.47042083740199997,True,0.9933333333333333,0.00666666666666671
136,5,136,words,s,s,0.33853793144199995,True,0.9933333333333333,0.00666666666666671
137,5,137,words,s,s,0.321477890015,True,0.9933333333333333,0.00666666666666671
138,5,138,pictures,l,l,0.41596198081999997,True,0.9933333333333333,0.00666666666666671
139,5,139,words,s,s,0.524258852005,True,0.9933333333333333,0.00666666666666671
140,5,140,pictures,l,l,0.392775058746,True,0.9933333333333333,0.00666666666666671
141,5,141,words,s,s,0.615628957748,True,0.9933333333333333,0.00666666666666671
142,5,142,pictures,l,l,0.472424983978,True,0.9933333333333333,0.00666666666666671
143,5,143,words,s,s,0.44541406631499997,True,0.9933333333333333,0.00666666666666671
144,5,144,pictures,l,l,0.38416695594800004,True,0.9933333333333333,0.00666666666666671
145,5,145,words,s,s,0.628350019455,True,0.9933333333333333,0.00666666666666671
146,5,146,pictures,l,l,0.407552957535,True,0.9933333333333333,0.00666666666666671
147,5,147,words,s,s,0.568853139877,True,0.9933333333333333,0.00666666666666671
148,5,148,pictures,l,l,0.41260600090000005,True,0.9933333333333333,0.00666666666666671
149,5,149,pictures,l,l,0.46694397926299996,True,0.9933333333333333,0.00666666666666671
0,6,0,pictures,l,l,0.34990882873499995,True,0.9733333333333334,0.026666666666666616
1,6,1,words,s,s,0.726380109787,True,0.9733333333333334,0.026666666666666616
2,6,2,pictures,l,l,0.518011808395,True,0.9733333333333334,0.026666666666666616
3,6,3,words,s,s,0.509079933167,True,0.9733333333333334,0.026666666666666616
4,6,4,pictures,l,l,0.548326015472,True,0.9733333333333334,0.026666666666666616
5,6,5,words,s,s,0.6913568973540001,True,0.9733333333333334,0.026666666666666616
6,6,6,words,s,s,0.569545030594,True,0.9733333333333334,0.026666666666666616
7,6,7,pictures,l,l,0.441092967987,True,0.9733333333333334,0.026666666666666616
8,6,8,words,s,s,0.45167708396899997,True,0.9733333333333334,0.026666666666666616
9,6,9,pictures,l,l,0.410259962082,True,0.9733333333333334,0.026666666666666616
10,6,10,words,s,s,0.544312953949,True,0.9733333333333334,0.026666666666666616
11,6,11,pictures,l,l,0.557492017746,True,0.9733333333333334,0.026666666666666616
12,6,12,words,s,s,0.486269950867,True,0.9733333333333334,0.026666666666666616
13,6,13,pictures,l,l,0.558928012848,True,0.9733333333333334,0.026666666666666616
14,6,14,words,s,s,0.523968935013,True,0.9733333333333334,0.026666666666666616
15,6,15,pictures,l,l,0.680063009262,True,0.9733333333333334,0.026666666666666616
16,6,16,pictures,l,l,0.458410024643,True,0.9733333333333334,0.026666666666666616
17,6,17,pictures,l,l,0.43459415435800003,True,0.9733333333333334,0.026666666666666616
18,6,18,pictures,l,l,0.43917298317000003,True,0.9733333333333334,0.026666666666666616
19,6,19,words,s,s,0.46061396598800003,True,0.9733333333333334,0.026666666666666616
20,6,20,words,s,s,0.432096004486,True,0.9733333333333334,0.026666666666666616
21,6,21,pictures,l,l,0.413558006287,True,0.9733333333333334,0.026666666666666616
22,6,22,pictures,l,l,0.461569070816,True,0.9733333333333334,0.026666666666666616
23,6,23,pictures,l,l,0.414585113525,True,0.9733333333333334,0.026666666666666616
24,6,24,words,s,s,0.43222117423999995,True,0.9733333333333334,0.026666666666666616
25,6,25,pictures,l,l,0.513724088669,True,0.9733333333333334,0.026666666666666616
26,6,26,words,s,s,0.41718196868900004,True,0.9733333333333334,0.026666666666666616
27,6,27,pictures,l,l,0.371870040894,True,0.9733333333333334,0.026666666666666616
28,6,28,pictures,l,l,0.48046398162799997,True,0.9733333333333334,0.026666666666666616
29,6,29,pictures,l,l,0.383674144745,True,0.9733333333333334,0.026666666666666616
30,6,30,pictures,l,l,0.404299974442,True,0.9733333333333334,0.026666666666666616
31,6,31,words,s,s,0.44558095931999997,True,0.9733333333333334,0.026666666666666616
32,6,32,words,s,s,0.427961111069,True,0.9733333333333334,0.026666666666666616
33,6,33,words,s,s,0.571902990341,True,0.9733333333333334,0.026666666666666616
34,6,34,pictures,l,l,0.405609130859,True,0.9733333333333334,0.026666666666666616
35,6,35,words,s,s,0.6601979732509999,True,0.9733333333333334,0.026666666666666616
36,6,36,words,s,s,0.48634505271899997,True,0.9733333333333334,0.026666666666666616
37,6,37,words,s,s,0.353871107101,True,0.9733333333333334,0.026666666666666616
38,6,38,pictures,l,l,0.40908908844,True,0.9733333333333334,0.026666666666666616
39,6,39,pictures,l,l,0.44431114196800003,True,0.9733333333333334,0.026666666666666616
40,6,40,pictures,l,l,0.49808883667,True,0.9733333333333334,0.026666666666666616
41,6,41,pictures,l,l,0.422601938248,True,0.9733333333333334,0.026666666666666616
42,6,42,pictures,l,l,0.606940984726,True,0.9733333333333334,0.026666666666666616
43,6,43,words,s,s,0.49028301238999994,True,0.9733333333333334,0.026666666666666616
44,6,44,pictures,l,l,0.448313951492,True,0.9733333333333334,0.026666666666666616
45,6,45,words,s,s,0.420169830322,True,0.9733333333333334,0.026666666666666616
46,6,46,words,s,s,0.472300052643,True,0.9733333333333334,0.026666666666666616
47,6,47,pictures,l,l,0.420520067215,True,0.9733333333333334,0.026666666666666616
48,6,48,pictures,l,l,0.596568107605,True,0.9733333333333334,0.026666666666666616
49,6,49,pictures,l,l,0.525604963303,True,0.9733333333333334,0.026666666666666616
50,6,50,pictures,l,l,0.463037967682,True,0.9733333333333334,0.026666666666666616
51,6,51,pictures,l,l,0.435920000076,True,0.9733333333333334,0.026666666666666616
52,6,52,words,s,s,0.48430299758900003,True,0.9733333333333334,0.026666666666666616
53,6,53,words,s,s,0.40409088134800003,True,0.9733333333333334,0.026666666666666616
54,6,54,pictures,l,l,0.408001184464,True,0.9733333333333334,0.026666666666666616
55,6,55,pictures,l,l,0.43533682823200004,True,0.9733333333333334,0.026666666666666616
56,6,56,pictures,l,l,0.43010616302500004,True,0.9733333333333334,0.026666666666666616
57,6,57,words,s,s,0.454763889313,True,0.9733333333333334,0.026666666666666616
58,6,58,words,s,s,0.421231985092,True,0.9733333333333334,0.026666666666666616
59,6,59,pictures,l,l,0.40012717247,True,0.9733333333333334,0.026666666666666616
60,6,60,pictures,l,l,0.41231703758199995,True,0.9733333333333334,0.026666666666666616
61,6,61,pictures,l,l,0.421034812927,True,0.9733333333333334,0.026666666666666616
62,6,62,pictures,l,l,0.404057979584,True,0.9733333333333334,0.026666666666666616
63,6,63,words,s,s,0.42308998107900003,True,0.9733333333333334,0.026666666666666616
64,6,64,words,s,s,0.37643289566,True,0.9733333333333334,0.026666666666666616
65,6,65,words,s,s,0.44323682784999996,True,0.9733333333333334,0.026666666666666616
66,6,66,pictures,l,l,0.41653990745499997,True,0.9733333333333334,0.026666666666666616
67,6,67,words,s,l,0.487534999847,False,0.9733333333333334,0.026666666666666616
68,6,68,pictures,l,l,0.60546207428,True,0.9733333333333334,0.026666666666666616
69,6,69,words,s,s,0.689424991608,True,0.9733333333333334,0.026666666666666616
70,6,70,words,s,s,0.47318887710600005,True,0.9733333333333334,0.026666666666666616
71,6,71,pictures,l,l,0.449419975281,True,0.9733333333333334,0.026666666666666616
72,6,72,pictures,l,l,0.40900516509999996,True,0.9733333333333334,0.026666666666666616
73,6,73,pictures,l,l,0.446053028107,True,0.9733333333333334,0.026666666666666616
74,6,74,words,s,s,0.480395078659,True,0.9733333333333334,0.026666666666666616
75,6,75,words,s,s,0.41116905212399996,True,0.9733333333333334,0.026666666666666616
76,6,76,pictures,l,l,0.430582046509,True,0.9733333333333334,0.026666666666666616
77,6,77,pictures,l,l,0.4465239048,True,0.9733333333333334,0.026666666666666616
78,6,78,pictures,l,l,0.542856931686,True,0.9733333333333334,0.026666666666666616
79,6,79,pictures,l,l,0.432152986526,True,0.9733333333333334,0.026666666666666616
80,6,80,pictures,l,l,0.5068309307100001,True,0.9733333333333334,0.026666666666666616
81,6,81,pictures,l,l,0.45212483406099996,True,0.9733333333333334,0.026666666666666616
82,6,82,words,s,s,0.47864913940399995,True,0.9733333333333334,0.026666666666666616
83,6,83,pictures,l,l,0.404764890671,True,0.9733333333333334,0.026666666666666616
84,6,84,words,s,s,0.41447401046800003,True,0.9733333333333334,0.026666666666666616
85,6,85,words,s,s,0.439061164856,True,0.9733333333333334,0.026666666666666616
86,6,86,words,s,s,0.34444713592500004,True,0.9733333333333334,0.026666666666666616
87,6,87,words,s,s,0.379477024078,True,0.9733333333333334,0.026666666666666616
88,6,88,words,s,s,0.472468137741,True,0.9733333333333334,0.026666666666666616
89,6,89,pictures,l,l,0.421825170517,True,0.9733333333333334,0.026666666666666616
90,6,90,words,s,l,0.49122405052199997,False,0.9733333333333334,0.026666666666666616
91,6,91,words,s,s,0.492666959763,True,0.9733333333333334,0.026666666666666616
92,6,92,words,s,s,0.529058933258,True,0.9733333333333334,0.026666666666666616
93,6,93,pictures,l,l,0.40558314323399997,True,0.9733333333333334,0.026666666666666616
94,6,94,pictures,l,l,0.439723014832,True,0.9733333333333334,0.026666666666666616
95,6,95,words,s,s,0.453610897064,True,0.9733333333333334,0.026666666666666616
96,6,96,words,s,s,0.450614929199,True,0.9733333333333334,0.026666666666666616
97,6,97,words,s,s,0.38005495071400003,True,0.9733333333333334,0.026666666666666616
98,6,98,words,s,s,0.39241409301799995,True,0.9733333333333334,0.026666666666666616
99,6,99,words,s,s,0.408670902252,True,0.9733333333333334,0.026666666666666616
100,6,100,pictures,l,l,0.431999921799,True,0.9733333333333334,0.026666666666666616
101,6,101,words,s,s,0.5288720130919999,True,0.9733333333333334,0.026666666666666616
102,6,102,pictures,l,l,0.34575891494800004,True,0.9733333333333334,0.026666666666666616
103,6,103,pictures,l,l,0.524860143661,True,0.9733333333333334,0.026666666666666616
104,6,104,words,s,s,0.404438018799,True,0.9733333333333334,0.026666666666666616
105,6,105,pictures,l,l,0.503135204315,True,0.9733333333333334,0.026666666666666616
106,6,106,words,s,s,0.48285293579099997,True,0.9733333333333334,0.026666666666666616
107,6,107,pictures,l,l,0.43751096725500005,True,0.9733333333333334,0.026666666666666616
108,6,108,words,s,s,0.39514112472499996,True,0.9733333333333334,0.026666666666666616
109,6,109,words,s,s,0.47128200531000003,True,0.9733333333333334,0.026666666666666616
110,6,110,words,s,s,0.40879702568099996,True,0.9733333333333334,0.026666666666666616
111,6,111,words,s,s,0.399989843369,True,0.9733333333333334,0.026666666666666616
112,6,112,words,s,s,0.346964836121,True,0.9733333333333334,0.026666666666666616
113,6,113,pictures,l,l,0.44630384445200005,True,0.9733333333333334,0.026666666666666616
114,6,114,words,s,s,0.481392860413,True,0.9733333333333334,0.026666666666666616
115,6,115,pictures,l,l,0.341353178024,True,0.9733333333333334,0.026666666666666616
116,6,116,pictures,l,s,0.375859975815,False,0.9733333333333334,0.026666666666666616
117,6,117,words,s,s,0.680559873581,True,0.9733333333333334,0.026666666666666616
118,6,118,pictures,l,l,0.554286003113,True,0.9733333333333334,0.026666666666666616
119,6,119,words,s,s,0.41130208969099996,True,0.9733333333333334,0.026666666666666616
120,6,120,pictures,l,l,0.41534805297899996,True,0.9733333333333334,0.026666666666666616
121,6,121,words,s,s,0.43863797187799997,True,0.9733333333333334,0.026666666666666616
122,6,122,pictures,l,l,0.453444957733,True,0.9733333333333334,0.026666666666666616
123,6,123,words,s,s,0.46086597442599997,True,0.9733333333333334,0.026666666666666616
124,6,124,words,s,s,0.52375292778,True,0.9733333333333334,0.026666666666666616
125,6,125,pictures,l,l,0.45282506942699996,True,0.9733333333333334,0.026666666666666616
126,6,126,pictures,l,l,0.474595069885,True,0.9733333333333334,0.026666666666666616
127,6,127,pictures,l,l,0.552268981934,True,0.9733333333333334,0.026666666666666616
128,6,128,pictures,l,l,0.426326036453,True,0.9733333333333334,0.026666666666666616
129,6,129,pictures,l,l,0.455435991287,True,0.9733333333333334,0.026666666666666616
130,6,130,pictures,l,l,0.425662994385,True,0.9733333333333334,0.026666666666666616
131,6,131,words,s,s,0.470686912537,True,0.9733333333333334,0.026666666666666616
132,6,132,pictures,l,l,0.45969700813299996,True,0.9733333333333334,0.026666666666666616
133,6,133,words,s,s,0.46715593338,True,0.9733333333333334,0.026666666666666616
134,6,134,words,s,s,0.45517516136200004,True,0.9733333333333334,0.026666666666666616
135,6,135,words,s,s,0.39909601211499995,True,0.9733333333333334,0.026666666666666616
136,6,136,words,s,s,0.43192505836499995,True,0.9733333333333334,0.026666666666666616
137,6,137,pictures,l,l,0.38648796081500003,True,0.9733333333333334,0.026666666666666616
138,6,138,words,s,s,0.429224967957,True,0.9733333333333334,0.026666666666666616
139,6,139,words,s,l,0.359208106995,False,0.9733333333333334,0.026666666666666616
140,6,140,words,s,s,0.551496982574,True,0.9733333333333334,0.026666666666666616
141,6,141,pictures,l,l,0.616019010544,True,0.9733333333333334,0.026666666666666616
142,6,142,pictures,l,l,0.498393058777,True,0.9733333333333334,0.026666666666666616
143,6,143,pictures,l,l,0.585321903229,True,0.9733333333333334,0.026666666666666616
144,6,144,pictures,l,l,0.50923705101,True,0.9733333333333334,0.026666666666666616
145,6,145,words,s,s,0.495828866959,True,0.9733333333333334,0.026666666666666616
146,6,146,pictures,l,l,0.49388718605,True,0.9733333333333334,0.026666666666666616
147,6,147,pictures,l,l,0.6064991950990001,True,0.9733333333333334,0.026666666666666616
148,6,148,words,s,s,0.505416154861,True,0.9733333333333334,0.026666666666666616
149,6,149,pictures,l,l,0.44962596893299994,True,0.9733333333333334,0.026666666666666616
0,7,0,words,s,s,0.9511640071870001,True,0.9933333333333333,0.00666666666666671
1,7,1,pictures,l,l,0.764862060547,True,0.9933333333333333,0.00666666666666671
2,7,2,pictures,l,s,0.64750790596,False,0.9933333333333333,0.00666666666666671
3,7,3,words,s,s,0.7897081375120001,True,0.9933333333333333,0.00666666666666671
4,7,4,words,s,s,0.6583170890810001,True,0.9933333333333333,0.00666666666666671
5,7,5,pictures,l,l,0.52078294754,True,0.9933333333333333,0.00666666666666671
6,7,6,words,s,s,0.549988031387,True,0.9933333333333333,0.00666666666666671
7,7,7,pictures,l,l,1.0291998386399999,True,0.9933333333333333,0.00666666666666671
8,7,8,pictures,l,l,0.6964387893680001,True,0.9933333333333333,0.00666666666666671
9,7,9,pictures,l,l,0.440395116806,True,0.9933333333333333,0.00666666666666671
10,7,10,words,s,s,0.496742963791,True,0.9933333333333333,0.00666666666666671
11,7,11,pictures,l,l,0.479253053665,True,0.9933333333333333,0.00666666666666671
12,7,12,words,s,s,0.5962388515470001,True,0.9933333333333333,0.00666666666666671
13,7,13,words,s,s,0.37666702270499997,True,0.9933333333333333,0.00666666666666671
14,7,14,pictures,l,l,0.394441127777,True,0.9933333333333333,0.00666666666666671
15,7,15,words,s,s,0.438056945801,True,0.9933333333333333,0.00666666666666671
16,7,16,pictures,l,l,0.455164909363,True,0.9933333333333333,0.00666666666666671
17,7,17,pictures,l,l,0.44479203224200003,True,0.9933333333333333,0.00666666666666671
18,7,18,words,s,s,0.476292133331,True,0.9933333333333333,0.00666666666666671
19,7,19,words,s,s,0.422929048538,True,0.9933333333333333,0.00666666666666671
20,7,20,words,s,s,0.332472085953,True,0.9933333333333333,0.00666666666666671
21,7,21,pictures,l,l,0.38559794426,True,0.9933333333333333,0.00666666666666671
22,7,22,words,s,s,0.501106023788,True,0.9933333333333333,0.00666666666666671
23,7,23,pictures,l,l,0.405500173569,True,0.9933333333333333,0.00666666666666671
24,7,24,pictures,l,l,0.554160118103,True,0.9933333333333333,0.00666666666666671
25,7,25,words,s,s,0.45321416854900004,True,0.9933333333333333,0.00666666666666671
26,7,26,pictures,l,l,0.41150021553000005,True,0.9933333333333333,0.00666666666666671
27,7,27,words,s,s,0.380402803421,True,0.9933333333333333,0.00666666666666671
28,7,28,words,s,s,0.368949174881,True,0.9933333333333333,0.00666666666666671
29,7,29,words,s,s,0.27720499038699997,True,0.9933333333333333,0.00666666666666671
30,7,30,pictures,l,l,0.43259596824600005,True,0.9933333333333333,0.00666666666666671
31,7,31,words,s,s,0.37795090675399995,True,0.9933333333333333,0.00666666666666671
32,7,32,words,s,s,0.356539964676,True,0.9933333333333333,0.00666666666666671
33,7,33,pictures,l,l,0.308804035187,True,0.9933333333333333,0.00666666666666671
34,7,34,words,s,s,0.457957983017,True,0.9933333333333333,0.00666666666666671
35,7,35,words,s,s,0.308223009109,True,0.9933333333333333,0.00666666666666671
36,7,36,pictures,l,l,0.32301902770999996,True,0.9933333333333333,0.00666666666666671
37,7,37,pictures,l,l,0.40187907218900004,True,0.9933333333333333,0.00666666666666671
38,7,38,pictures,l,l,0.353718996048,True,0.9933333333333333,0.00666666666666671
39,7,39,pictures,l,l,0.40084099769599996,True,0.9933333333333333,0.00666666666666671
40,7,40,pictures,l,l,0.354986906052,True,0.9933333333333333,0.00666666666666671
41,7,41,pictures,l,l,0.426378011703,True,0.9933333333333333,0.00666666666666671
42,7,42,words,s,s,0.44935894012500005,True,0.9933333333333333,0.00666666666666671
43,7,43,words,s,s,0.313074111938,True,0.9933333333333333,0.00666666666666671
44,7,44,pictures,l,l,0.375115871429,True,0.9933333333333333,0.00666666666666671
45,7,45,pictures,l,l,0.36116909980800005,True,0.9933333333333333,0.00666666666666671
46,7,46,words,s,s,0.419496059418,True,0.9933333333333333,0.00666666666666671
47,7,47,pictures,l,l,0.314880847931,True,0.9933333333333333,0.00666666666666671
48,7,48,words,s,s,0.35220599174500006,True,0.9933333333333333,0.00666666666666671
49,7,49,words,s,s,0.56702208519,True,0.9933333333333333,0.00666666666666671
50,7,50,pictures,l,l,0.389698028564,True,0.9933333333333333,0.00666666666666671
51,7,51,pictures,l,l,0.447993040085,True,0.9933333333333333,0.00666666666666671
52,7,52,words,s,s,0.46929907798799997,True,0.9933333333333333,0.00666666666666671
53,7,53,words,s,s,0.312170028687,True,0.9933333333333333,0.00666666666666671
54,7,54,words,s,s,0.46446609497100005,True,0.9933333333333333,0.00666666666666671
55,7,55,words,s,s,0.329237937927,True,0.9933333333333333,0.00666666666666671
56,7,56,pictures,l,l,0.593826055527,True,0.9933333333333333,0.00666666666666671
57,7,57,words,s,s,0.387558221817,True,0.9933333333333333,0.00666666666666671
58,7,58,words,s,s,0.339619874954,True,0.9933333333333333,0.00666666666666671
59,7,59,pictures,l,l,0.559103965759,True,0.9933333333333333,0.00666666666666671
60,7,60,pictures,l,l,0.405642986298,True,0.9933333333333333,0.00666666666666671
61,7,61,pictures,l,l,0.411089897156,True,0.9933333333333333,0.00666666666666671
62,7,62,words,s,s,0.47041893005400004,True,0.9933333333333333,0.00666666666666671
63,7,63,pictures,l,l,0.452273845673,True,0.9933333333333333,0.00666666666666671
64,7,64,pictures,l,l,0.488857030869,True,0.9933333333333333,0.00666666666666671
65,7,65,words,s,s,0.417739868164,True,0.9933333333333333,0.00666666666666671
66,7,66,words,s,s,0.33633708953900004,True,0.9933333333333333,0.00666666666666671
67,7,67,pictures,l,l,0.34616708755500003,True,0.9933333333333333,0.00666666666666671
68,7,68,words,s,s,0.370404958725,True,0.9933333333333333,0.00666666666666671
69,7,69,words,s,s,0.344369888306,True,0.9933333333333333,0.00666666666666671
70,7,70,pictures,l,l,0.298655033112,True,0.9933333333333333,0.00666666666666671
71,7,71,words,s,s,0.334600925446,True,0.9933333333333333,0.00666666666666671
72,7,72,pictures,l,l,0.35827493667599997,True,0.9933333333333333,0.00666666666666671
73,7,73,pictures,l,l,0.39103603363000006,True,0.9933333333333333,0.00666666666666671
74,7,74,words,s,s,0.432385206223,True,0.9933333333333333,0.00666666666666671
75,7,75,pictures,l,l,0.39346814155599996,True,0.9933333333333333,0.00666666666666671
76,7,76,pictures,l,l,0.544439792633,True,0.9933333333333333,0.00666666666666671
77,7,77,pictures,l,l,0.540313005447,True,0.9933333333333333,0.00666666666666671
78,7,78,words,s,s,0.44772791862499994,True,0.9933333333333333,0.00666666666666671
79,7,79,words,s,s,0.360159873962,True,0.9933333333333333,0.00666666666666671
80,7,80,words,s,s,0.338310956955,True,0.9933333333333333,0.00666666666666671
81,7,81,pictures,l,l,0.628936052322,True,0.9933333333333333,0.00666666666666671
82,7,82,words,s,s,0.479012966156,True,0.9933333333333333,0.00666666666666671
83,7,83,words,s,s,0.302484035492,True,0.9933333333333333,0.00666666666666671
84,7,84,words,s,s,0.386414051056,True,0.9933333333333333,0.00666666666666671
85,7,85,words,s,s,0.403476953506,True,0.9933333333333333,0.00666666666666671
86,7,86,pictures,l,l,0.47937607765199997,True,0.9933333333333333,0.00666666666666671
87,7,87,words,s,s,0.37417697906499997,True,0.9933333333333333,0.00666666666666671
88,7,88,words,s,s,0.377821922302,True,0.9933333333333333,0.00666666666666671
89,7,89,words,s,s,0.336883068085,True,0.9933333333333333,0.00666666666666671
90,7,90,words,s,s,0.362807035446,True,0.9933333333333333,0.00666666666666671
91,7,91,words,s,s,0.399839878082,True,0.9933333333333333,0.00666666666666671
92,7,92,words,s,s,0.42956900596600006,True,0.9933333333333333,0.00666666666666671
93,7,93,pictures,l,l,0.33642411232,True,0.9933333333333333,0.00666666666666671
94,7,94,words,s,s,0.398589849472,True,0.9933333333333333,0.00666666666666671
95,7,95,pictures,l,l,0.30554485320999997,True,0.9933333333333333,0.00666666666666671
96,7,96,words,s,s,0.558537006378,True,0.9933333333333333,0.00666666666666671
97,7,97,pictures,l,l,0.35722899437,True,0.9933333333333333,0.00666666666666671
98,7,98,pictures,l,l,0.476588964462,True,0.9933333333333333,0.00666666666666671
99,7,99,words,s,s,0.413588047028,True,0.9933333333333333,0.00666666666666671
100,7,100,pictures,l,l,0.35774707794200006,True,0.9933333333333333,0.00666666666666671
101,7,101,pictures,l,l,0.5872058868410001,True,0.9933333333333333,0.00666666666666671
102,7,102,words,s,s,0.378978013992,True,0.9933333333333333,0.00666666666666671
103,7,103,pictures,l,l,0.35865497589100004,True,0.9933333333333333,0.00666666666666671
104,7,104,pictures,l,l,0.39832711219800004,True,0.9933333333333333,0.00666666666666671
105,7,105,words,s,s,0.406462907791,True,0.9933333333333333,0.00666666666666671
106,7,106,words,s,s,0.345565080643,True,0.9933333333333333,0.00666666666666671
107,7,107,words,s,s,0.363661050797,True,0.9933333333333333,0.00666666666666671
108,7,108,pictures,l,l,0.45650506019599996,True,0.9933333333333333,0.00666666666666671
109,7,109,pictures,l,l,0.47420096397399997,True,0.9933333333333333,0.00666666666666671
110,7,110,words,s,s,0.378606081009,True,0.9933333333333333,0.00666666666666671
111,7,111,pictures,l,l,0.36974501609800003,True,0.9933333333333333,0.00666666666666671
112,7,112,words,s,s,0.322215080261,True,0.9933333333333333,0.00666666666666671
113,7,113,words,s,s,0.337664842606,True,0.9933333333333333,0.00666666666666671
114,7,114,words,s,s,0.357304096222,True,0.9933333333333333,0.00666666666666671
115,7,115,pictures,l,l,0.501895189285,True,0.9933333333333333,0.00666666666666671
116,7,116,pictures,l,l,0.410279989243,True,0.9933333333333333,0.00666666666666671
117,7,117,words,s,s,0.392795801163,True,0.9933333333333333,0.00666666666666671
118,7,118,pictures,l,l,0.366140127182,True,0.9933333333333333,0.00666666666666671
119,7,119,pictures,l,l,0.529284000397,True,0.9933333333333333,0.00666666666666671
120,7,120,words,s,s,0.395424842834,True,0.9933333333333333,0.00666666666666671
121,7,121,pictures,l,l,0.344727993011,True,0.9933333333333333,0.00666666666666671
122,7,122,pictures,l,l,0.424700021744,True,0.9933333333333333,0.00666666666666671
123,7,123,words,s,s,0.505794048309,True,0.9933333333333333,0.00666666666666671
124,7,124,words,s,s,0.401888132095,True,0.9933333333333333,0.00666666666666671
125,7,125,pictures,l,l,0.518298149109,True,0.9933333333333333,0.00666666666666671
126,7,126,pictures,l,l,0.45869588851899995,True,0.9933333333333333,0.00666666666666671
127,7,127,pictures,l,l,0.481729030609,True,0.9933333333333333,0.00666666666666671
128,7,128,pictures,l,l,0.383910894394,True,0.9933333333333333,0.00666666666666671
129,7,129,words,s,s,0.396508932114,True,0.9933333333333333,0.00666666666666671
130,7,130,words,s,s,0.311594009399,True,0.9933333333333333,0.00666666666666671
131,7,131,words,s,s,0.40372776985200004,True,0.9933333333333333,0.00666666666666671
132,7,132,pictures,l,l,0.513235807419,True,0.9933333333333333,0.00666666666666671
133,7,133,pictures,l,l,0.36714482307400004,True,0.9933333333333333,0.00666666666666671
134,7,134,words,s,s,0.53848695755,True,0.9933333333333333,0.00666666666666671
135,7,135,words,s,s,0.337572097778,True,0.9933333333333333,0.00666666666666671
136,7,136,words,s,s,0.37216806411700004,True,0.9933333333333333,0.00666666666666671
137,7,137,pictures,l,l,0.464895963669,True,0.9933333333333333,0.00666666666666671
138,7,138,words,s,s,0.49147391319300004,True,0.9933333333333333,0.00666666666666671
139,7,139,pictures,l,l,0.393927097321,True,0.9933333333333333,0.00666666666666671
140,7,140,pictures,l,l,0.435564994812,True,0.9933333333333333,0.00666666666666671
141,7,141,words,s,s,0.42611598968500003,True,0.9933333333333333,0.00666666666666671
142,7,142,words,s,s,0.634285926819,True,0.9933333333333333,0.00666666666666671
143,7,143,words,s,s,0.36776494979900004,True,0.9933333333333333,0.00666666666666671
144,7,144,pictures,l,l,0.38268494606,True,0.9933333333333333,0.00666666666666671
145,7,145,words,s,s,0.43238615989699997,True,0.9933333333333333,0.00666666666666671
146,7,146,pictures,l,l,0.393573999405,True,0.9933333333333333,0.00666666666666671
147,7,147,pictures,l,l,0.409622192383,True,0.9933333333333333,0.00666666666666671
148,7,148,words,s,s,0.364207983017,True,0.9933333333333333,0.00666666666666671
149,7,149,words,s,s,0.34117007255599996,True,0.9933333333333333,0.00666666666666671
0,8,0,words,s,s,3.20594716072,True,0.9933333333333333,0.00666666666666671
1,8,1,words,s,s,1.55191111565,True,0.9933333333333333,0.00666666666666671
2,8,2,pictures,l,l,0.8923480510709999,True,0.9933333333333333,0.00666666666666671
3,8,3,words,s,s,0.717571020126,True,0.9933333333333333,0.00666666666666671
4,8,4,words,s,s,0.5726809501650001,True,0.9933333333333333,0.00666666666666671
5,8,5,pictures,l,l,0.63271021843,True,0.9933333333333333,0.00666666666666671
6,8,6,words,s,s,0.5750601291659999,True,0.9933333333333333,0.00666666666666671
7,8,7,pictures,l,l,0.639923810959,True,0.9933333333333333,0.00666666666666671
8,8,8,pictures,l,l,0.6887190341949999,True,0.9933333333333333,0.00666666666666671
9,8,9,pictures,l,l,0.600387096405,True,0.9933333333333333,0.00666666666666671
10,8,10,pictures,l,l,0.565170049667,True,0.9933333333333333,0.00666666666666671
11,8,11,words,s,s,0.548434972763,True,0.9933333333333333,0.00666666666666671
12,8,12,words,s,s,0.500547885895,True,0.9933333333333333,0.00666666666666671
13,8,13,words,s,s,0.511644124985,True,0.9933333333333333,0.00666666666666671
14,8,14,pictures,l,l,0.548448085785,True,0.9933333333333333,0.00666666666666671
15,8,15,pictures,l,l,0.49956893920900003,True,0.9933333333333333,0.00666666666666671
16,8,16,words,s,s,0.56356883049,True,0.9933333333333333,0.00666666666666671
17,8,17,pictures,l,l,0.522395133972,True,0.9933333333333333,0.00666666666666671
18,8,18,pictures,l,l,0.5737550258640001,True,0.9933333333333333,0.00666666666666671
19,8,19,pictures,l,l,0.596988916397,True,0.9933333333333333,0.00666666666666671
20,8,20,words,s,s,0.5383329391480001,True,0.9933333333333333,0.00666666666666671
21,8,21,pictures,l,l,0.545340061188,True,0.9933333333333333,0.00666666666666671
22,8,22,words,s,s,0.7209968566889999,True,0.9933333333333333,0.00666666666666671
23,8,23,pictures,l,l,0.49617481231700006,True,0.9933333333333333,0.00666666666666671
24,8,24,words,s,s,0.7038140296940001,True,0.9933333333333333,0.00666666666666671
25,8,25,words,s,s,0.521164894104,True,0.9933333333333333,0.00666666666666671
26,8,26,words,s,s,0.515912055969,True,0.9933333333333333,0.00666666666666671
27,8,27,pictures,l,l,0.502750873566,True,0.9933333333333333,0.00666666666666671
28,8,28,pictures,l,l,0.552870035172,True,0.9933333333333333,0.00666666666666671
29,8,29,words,s,s,0.621308088303,True,0.9933333333333333,0.00666666666666671
30,8,30,pictures,l,l,0.48339414596600006,True,0.9933333333333333,0.00666666666666671
31,8,31,words,s,s,0.49160385131800005,True,0.9933333333333333,0.00666666666666671
32,8,32,words,s,s,0.453606128693,True,0.9933333333333333,0.00666666666666671
33,8,33,words,s,s,0.432420015335,True,0.9933333333333333,0.00666666666666671
34,8,34,words,s,s,0.469609975815,True,0.9933333333333333,0.00666666666666671
35,8,35,words,s,s,0.481142997742,True,0.9933333333333333,0.00666666666666671
36,8,36,pictures,l,l,0.446661949158,True,0.9933333333333333,0.00666666666666671
37,8,37,words,s,s,0.85835981369,True,0.9933333333333333,0.00666666666666671
38,8,38,pictures,l,l,0.544121980667,True,0.9933333333333333,0.00666666666666671
39,8,39,pictures,l,l,0.5466768741610001,True,0.9933333333333333,0.00666666666666671
40,8,40,pictures,l,l,0.521828889847,True,0.9933333333333333,0.00666666666666671
41,8,41,words,s,s,0.501861810684,True,0.9933333333333333,0.00666666666666671
42,8,42,pictures,l,l,0.62047290802,True,0.9933333333333333,0.00666666666666671
43,8,43,words,s,s,0.560416936874,True,0.9933333333333333,0.00666666666666671
44,8,44,words,s,s,0.522531986237,True,0.9933333333333333,0.00666666666666671
45,8,45,words,s,s,0.508378982544,True,0.9933333333333333,0.00666666666666671
46,8,46,words,s,s,0.481603145599,True,0.9933333333333333,0.00666666666666671
47,8,47,pictures,l,l,0.49448013305699995,True,0.9933333333333333,0.00666666666666671
48,8,48,pictures,l,l,0.493525981903,True,0.9933333333333333,0.00666666666666671
49,8,49,words,s,s,0.536060810089,True,0.9933333333333333,0.00666666666666671
50,8,50,pictures,l,l,0.5702879428859999,True,0.9933333333333333,0.00666666666666671
51,8,51,pictures,l,l,0.624449968338,True,0.9933333333333333,0.00666666666666671
52,8,52,pictures,l,l,0.6111369133,True,0.9933333333333333,0.00666666666666671
53,8,53,words,s,s,0.507348060608,True,0.9933333333333333,0.00666666666666671
54,8,54,pictures,l,l,0.48110103607199994,True,0.9933333333333333,0.00666666666666671
55,8,55,words,s,s,0.5294489860530001,True,0.9933333333333333,0.00666666666666671
56,8,56,words,s,s,0.463778972626,True,0.9933333333333333,0.00666666666666671
57,8,57,pictures,l,l,0.461199045181,True,0.9933333333333333,0.00666666666666671
58,8,58,pictures,l,l,0.637724876404,True,0.9933333333333333,0.00666666666666671
59,8,59,pictures,l,l,0.5051009654999999,True,0.9933333333333333,0.00666666666666671
60,8,60,pictures,l,l,0.498593091965,True,0.9933333333333333,0.00666666666666671
61,8,61,pictures,l,l,0.497776985168,True,0.9933333333333333,0.00666666666666671
62,8,62,words,s,s,0.46267008781400004,True,0.9933333333333333,0.00666666666666671
63,8,63,pictures,l,l,0.524666070938,True,0.9933333333333333,0.00666666666666671
64,8,64,words,s,s,0.587831020355,True,0.9933333333333333,0.00666666666666671
65,8,65,words,s,s,0.448391914368,True,0.9933333333333333,0.00666666666666671
66,8,66,words,s,s,0.512344121933,True,0.9933333333333333,0.00666666666666671
67,8,67,words,s,s,0.535046815872,True,0.9933333333333333,0.00666666666666671
68,8,68,pictures,l,l,0.45920419693000003,True,0.9933333333333333,0.00666666666666671
69,8,69,words,s,s,0.595016956329,True,0.9933333333333333,0.00666666666666671
70,8,70,words,s,s,0.5124309062960001,True,0.9933333333333333,0.00666666666666671
71,8,71,words,s,s,0.54566693306,True,0.9933333333333333,0.00666666666666671
72,8,72,pictures,l,l,0.426509857178,True,0.9933333333333333,0.00666666666666671
73,8,73,words,s,s,0.8313310146330001,True,0.9933333333333333,0.00666666666666671
74,8,74,words,s,s,0.451292037964,True,0.9933333333333333,0.00666666666666671
75,8,75,pictures,l,l,0.447154045105,True,0.9933333333333333,0.00666666666666671
76,8,76,pictures,l,l,0.486855983734,True,0.9933333333333333,0.00666666666666671
77,8,77,pictures,l,l,0.473484992981,True,0.9933333333333333,0.00666666666666671
78,8,78,pictures,l,l,0.46860098838799996,True,0.9933333333333333,0.00666666666666671
79,8,79,words,s,s,0.50713801384,True,0.9933333333333333,0.00666666666666671
80,8,80,words,s,s,0.48976898193400004,True,0.9933333333333333,0.00666666666666671
81,8,81,words,s,s,0.47963786125200003,True,0.9933333333333333,0.00666666666666671
82,8,82,pictures,l,l,0.45127105712899995,True,0.9933333333333333,0.00666666666666671
83,8,83,words,s,s,0.690227031708,True,0.9933333333333333,0.00666666666666671
84,8,84,words,s,s,0.448499917984,True,0.9933333333333333,0.00666666666666671
85,8,85,words,s,s,0.482366800308,True,0.9933333333333333,0.00666666666666671
86,8,86,words,s,s,0.484375953674,True,0.9933333333333333,0.00666666666666671
87,8,87,words,s,s,0.491734027863,True,0.9933333333333333,0.00666666666666671
88,8,88,words,s,s,0.49414896965000005,True,0.9933333333333333,0.00666666666666671
89,8,89,words,s,s,0.503229141235,True,0.9933333333333333,0.00666666666666671
90,8,90,pictures,l,l,0.425502061844,True,0.9933333333333333,0.00666666666666671
91,8,91,words,s,s,0.595952987671,True,0.9933333333333333,0.00666666666666671
92,8,92,words,s,s,0.469646930695,True,0.9933333333333333,0.00666666666666671
93,8,93,pictures,l,l,0.522807121277,True,0.9933333333333333,0.00666666666666671
94,8,94,pictures,l,l,0.61531496048,True,0.9933333333333333,0.00666666666666671
95,8,95,pictures,l,l,0.7589001655580001,True,0.9933333333333333,0.00666666666666671
96,8,96,pictures,l,l,0.561918973923,True,0.9933333333333333,0.00666666666666671
97,8,97,words,s,s,0.510730981827,True,0.9933333333333333,0.00666666666666671
98,8,98,words,s,s,0.5143778324130001,True,0.9933333333333333,0.00666666666666671
99,8,99,pictures,l,l,0.541718006134,True,0.9933333333333333,0.00666666666666671
100,8,100,words,s,s,0.639904975891,True,0.9933333333333333,0.00666666666666671
101,8,101,pictures,l,l,0.538906097412,True,0.9933333333333333,0.00666666666666671
102,8,102,words,s,s,0.542351007462,True,0.9933333333333333,0.00666666666666671
103,8,103,pictures,l,l,0.527520895004,True,0.9933333333333333,0.00666666666666671
104,8,104,pictures,l,l,0.7268450260160001,True,0.9933333333333333,0.00666666666666671
105,8,105,words,s,s,0.593633174896,True,0.9933333333333333,0.00666666666666671
106,8,106,words,s,s,0.514302015305,True,0.9933333333333333,0.00666666666666671
107,8,107,words,s,s,0.517335891724,True,0.9933333333333333,0.00666666666666671
108,8,108,words,s,s,0.49449396133400003,True,0.9933333333333333,0.00666666666666671
109,8,109,words,s,s,0.49964594841000004,True,0.9933333333333333,0.00666666666666671
110,8,110,pictures,l,l,0.45270013809199994,True,0.9933333333333333,0.00666666666666671
111,8,111,pictures,l,l,0.503890037537,True,0.9933333333333333,0.00666666666666671
112,8,112,words,s,s,0.5316028594969999,True,0.9933333333333333,0.00666666666666671
113,8,113,words,s,s,0.508194923401,True,0.9933333333333333,0.00666666666666671
114,8,114,pictures,l,l,0.47955703735399996,True,0.9933333333333333,0.00666666666666671
115,8,115,words,s,s,0.590810775757,True,0.9933333333333333,0.00666666666666671
116,8,116,pictures,l,l,0.46194410324100005,True,0.9933333333333333,0.00666666666666671
117,8,117,words,s,s,0.589818954468,True,0.9933333333333333,0.00666666666666671
118,8,118,words,s,s,0.490234136581,True,0.9933333333333333,0.00666666666666671
119,8,119,words,s,s,0.50883603096,True,0.9933333333333333,0.00666666666666671
120,8,120,words,s,s,0.553494930267,True,0.9933333333333333,0.00666666666666671
121,8,121,words,s,s,0.646231889725,True,0.9933333333333333,0.00666666666666671
122,8,122,words,s,s,0.57354593277,True,0.9933333333333333,0.00666666666666671
123,8,123,pictures,l,l,0.496876001358,True,0.9933333333333333,0.00666666666666671
124,8,124,pictures,l,l,0.58069396019,True,0.9933333333333333,0.00666666666666671
125,8,125,words,s,s,0.525604009628,True,0.9933333333333333,0.00666666666666671
126,8,126,words,s,s,0.51201581955,True,0.9933333333333333,0.00666666666666671
127,8,127,pictures,l,l,0.470045089722,True,0.9933333333333333,0.00666666666666671
128,8,128,pictures,l,l,0.5608751773830001,True,0.9933333333333333,0.00666666666666671
129,8,129,words,s,s,0.542569875717,True,0.9933333333333333,0.00666666666666671
130,8,130,pictures,l,l,0.523883104324,True,0.9933333333333333,0.00666666666666671
131,8,131,pictures,l,l,0.620012998581,True,0.9933333333333333,0.00666666666666671
132,8,132,pictures,l,l,0.5869638919829999,True,0.9933333333333333,0.00666666666666671
133,8,133,pictures,l,l,0.633753061295,True,0.9933333333333333,0.00666666666666671
134,8,134,pictures,l,l,0.6155488491059999,True,0.9933333333333333,0.00666666666666671
135,8,135,pictures,l,l,0.5624661445620001,True,0.9933333333333333,0.00666666666666671
136,8,136,pictures,l,l,0.5679869651789999,True,0.9933333333333333,0.00666666666666671
137,8,137,words,s,s,0.58731508255,True,0.9933333333333333,0.00666666666666671
138,8,138,pictures,l,l,0.558176994324,True,0.9933333333333333,0.00666666666666671
139,8,139,words,s,s,0.566056013107,True,0.9933333333333333,0.00666666666666671
140,8,140,pictures,l,l,0.49407100677500004,True,0.9933333333333333,0.00666666666666671
141,8,141,words,s,s,0.6245150566100001,True,0.9933333333333333,0.00666666666666671
142,8,142,pictures,l,l,0.47185897827100004,True,0.9933333333333333,0.00666666666666671
143,8,143,pictures,l,s,0.5626039505,False,0.9933333333333333,0.00666666666666671
144,8,144,pictures,l,l,0.9307827949519999,True,0.9933333333333333,0.00666666666666671
145,8,145,pictures,l,l,0.513385057449,True,0.9933333333333333,0.00666666666666671
146,8,146,words,s,s,0.73289513588,True,0.9933333333333333,0.00666666666666671
147,8,147,pictures,l,l,0.54833817482,True,0.9933333333333333,0.00666666666666671
148,8,148,words,s,s,0.622853040695,True,0.9933333333333333,0.00666666666666671
149,8,149,pictures,l,l,0.5166451931,True,0.9933333333333333,0.00666666666666671
